"idx","cond_no","cons","eng","pos","syl","vow","place","manner","context","lex","ph","asp","trials.thisRepN","trials.thisTrialN","trials.thisN","trials.thisIndex","key_resp_4.keys","key_resp_4.rt","key_resp_7.keys","key_resp_7.rt","date","frameRate","expName","participant"
1,36,"m","comb","n","cvncv","a","labial","nasal","ccv","kamba","kʰampa","no",0,0,0,39,"space",6.236841917,,,"2016_May_31_1427",59.9736329605,"icelandic","brs02"
2,36,"m","comb","n","cvncv","a","labial","nasal","ccv","kamba","kʰampa","no",0,0,0,39,"space",3.070333004,,,"2016_May_31_1427",59.9736329605,"icelandic","brs02"
3,36,"m","comb","n","cvncv","a","labial","nasal","ccv","kamba","kʰampa","no",0,0,0,39,"space",3.4207079411,,,"2016_May_31_1427",59.9736329605,"icelandic","brs02"
4,27,"ʰt","fall","v","cvccv","e","coronal","stop","ccv","detta","teʰta","yes",0,1,1,36,"space",3.2368650436,,,"2016_May_31_1427",59.9736329605,"icelandic","brs02"
5,27,"ʰt","fall","v","cvccv","e","coronal","stop","ccv","detta","teʰta","yes",0,1,1,36,"space",2.7533800602,,,"2016_May_31_1427",59.9736329605,"icelandic","brs02"
6,27,"ʰt","fall","v","cvccv","e","coronal","stop","ccv","detta","teʰta","yes",0,1,1,36,"space",2.1536531448,,,"2016_May_31_1427",59.9736329605,"icelandic","brs02"
7,54,"ʰp","arm","v","cvccv","o","labial","stop","ccv","vopna","voʰpna","yes",0,2,2,52,"space",2.8701620102,,,"2016_May_31_1427",59.9736329605,"icelandic","brs02"
8,54,"ʰp","arm","v","cvccv","o","labial","stop","ccv","vopna","voʰpna","yes",0,2,2,52,"space",2.5864360333,,,"2016_May_31_1427",59.9736329605,"icelandic","brs02"
9,54,"ʰp","arm","v","cvccv","o","labial","stop","ccv","vopna","voʰpna","yes",0,2,2,52,"space",2.71997118,,,"2016_May_31_1427",59.9736329605,"icelandic","brs02"
10,46,"l̥","reticent","agg","cvlc","ʏ","coronal","lateral","cc","dult","tʏl̥t","yes",0,3,3,31,"space",2.4363889694,,,"2016_May_31_1427",59.9736329605,"icelandic","brs02"
11,46,"l̥","reticent","agg","cvlc","ʏ","coronal","lateral","cc","dult","tʏl̥t","yes",0,3,3,31,"space",2.3364949226,,,"2016_May_31_1427",59.9736329605,"icelandic","brs02"
12,46,"l̥","reticent","agg","cvlc","ʏ","coronal","lateral","cc","dult","tʏl̥t","yes",0,3,3,31,"space",2.1867070198,,,"2016_May_31_1427",59.9736329605,"icelandic","brs02"
13,20,"ʰt","put","v","cvcc","e","coronal","stop","cc","sett","seʰt","yes",0,4,4,17,"space",2.9701960087,,,"2016_May_31_1427",59.9736329605,"icelandic","brs02"
14,20,"ʰt","put","v","cvcc","e","coronal","stop","cc","sett","seʰt","yes",0,4,4,17,"space",2.4864871502,,,"2016_May_31_1427",59.9736329605,"icelandic","brs02"
15,20,"ʰt","put","v","cvcc","e","coronal","stop","cc","sett","seʰt","yes",0,4,4,17,"space",2.5031659603,,,"2016_May_31_1427",59.9736329605,"icelandic","brs02"
16,58,"ʰp","cable","n","cvccv","a","labial","stop","ccv","kapli","kaʰpli","yes",0,5,5,56,"space",2.8534059525,,,"2016_May_31_1427",59.9736329605,"icelandic","brs02"
17,58,"ʰp","cable","n","cvccv","a","labial","stop","ccv","kapli","kaʰpli","yes",0,5,5,56,"space",2.2031471729,,,"2016_May_31_1427",59.9736329605,"icelandic","brs02"
18,58,"ʰp","cable","n","cvccv","a","labial","stop","ccv","kapli","kaʰpli","yes",0,5,5,56,"space",2.4872908592,,,"2016_May_31_1427",59.9736329605,"icelandic","brs02"
19,56,"ʰp","munch","v","cvccv","a","labial","stop","ccv","japla","jaʰpla","yes",0,6,6,54,"space",2.3539998531,,,"2016_May_31_1427",59.9736329605,"icelandic","brs02"
20,56,"ʰp","munch","v","cvccv","a","labial","stop","ccv","japla","jaʰpla","yes",0,6,6,54,"space",2.2705528736,,,"2016_May_31_1427",59.9736329605,"icelandic","brs02"
21,56,"ʰp","munch","v","cvccv","a","labial","stop","ccv","japla","jaʰpla","yes",0,6,6,54,"space",2.052891016,,,"2016_May_31_1427",59.9736329605,"icelandic","brs02"
22,35,"m̥","moustache","n","cvncv","a","labial","nasal","ccv","kampa","kʰam̥pa","yes",0,7,7,38,"space",2.3195688725,,,"2016_May_31_1427",59.9736329605,"icelandic","brs02"
23,35,"m̥","moustache","n","cvncv","a","labial","nasal","ccv","kampa","kʰam̥pa","yes",0,7,7,38,"space",2.1029670239,,,"2016_May_31_1427",59.9736329605,"icelandic","brs02"
24,35,"m̥","moustache","n","cvncv","a","labial","nasal","ccv","kampa","kʰam̥pa","yes",0,7,7,38,"space",2.2029099464,,,"2016_May_31_1427",59.9736329605,"icelandic","brs02"
25,10,"tt","thaw","v","cvccv","i","coronal","stop","ccv","þíddi","θitti","no",0,8,8,32,"space",2.5532419682,,,"2016_May_31_1427",59.9736329605,"icelandic","brs02"
26,10,"tt","thaw","v","cvccv","i","coronal","stop","ccv","þíddi","θitti","no",0,8,8,32,"space",2.353135109,,,"2016_May_31_1427",59.9736329605,"icelandic","brs02"
27,10,"tt","thaw","v","cvccv","i","coronal","stop","ccv","þíddi","θitti","no",0,8,8,32,"space",1.9528470039,,,"2016_May_31_1427",59.9736329605,"icelandic","brs02"
28,23,"s","wet","adj","cvvcc","o","coronal","stop","cc","vots","voss","no",0,9,9,20,"space",2.3871190548,,,"2016_May_31_1427",59.9736329605,"icelandic","brs02"
29,23,"s","wet","adj","cvvcc","o","coronal","stop","cc","vots","voss","no",0,9,9,20,"space",1.7696199417,,,"2016_May_31_1427",59.9736329605,"icelandic","brs02"
30,23,"s","wet","adj","cvvcc","o","coronal","stop","cc","vots","voss","no",0,9,9,20,"space",2.3696668148,,,"2016_May_31_1427",59.9736329605,"icelandic","brs02"
31,22,"ʰt","fat","adj","cvvcc","ei","coronal","stop","cc","feitt","feiʰt","yes",0,10,10,19,"space",2.536700964,,,"2016_May_31_1427",59.9736329605,"icelandic","brs02"
32,22,"ʰt","fat","adj","cvvcc","ei","coronal","stop","cc","feitt","feiʰt","yes",0,10,10,19,"space",2.2531027794,,,"2016_May_31_1427",59.9736329605,"icelandic","brs02"
33,22,"ʰt","fat","adj","cvvcc","ei","coronal","stop","cc","feitt","feiʰt","yes",0,10,10,19,"space",2.2030870915,,,"2016_May_31_1427",59.9736329605,"icelandic","brs02"
34,52,"l","foam","v","vvccv","iu","coronal","lateral","ccv","ólga","oulka","no",0,11,11,50,"space",2.6369111538,,,"2016_May_31_1427",59.9736329605,"icelandic","brs02"
35,52,"l","foam","v","vvccv","iu","coronal","lateral","ccv","ólga","oulka","no",0,11,11,50,"space",2.3697731495,,,"2016_May_31_1427",59.9736329605,"icelandic","brs02"
36,52,"l","foam","v","vvccv","iu","coronal","lateral","ccv","ólga","oulka","no",0,11,11,50,"space",2.3353209496,,,"2016_May_31_1427",59.9736329605,"icelandic","brs02"
37,32,"n","pound","n","cvnc","ʏ","coronal","nasal","cc","pund","pʰʏnt","no",0,12,12,25,"space",2.519862175,,,"2016_May_31_1427",59.9736329605,"icelandic","brs02"
38,32,"n","pound","n","cvnc","ʏ","coronal","nasal","cc","pund","pʰʏnt","no",0,12,12,25,"space",2.369767189,,,"2016_May_31_1427",59.9736329605,"icelandic","brs02"
39,32,"n","pound","n","cvnc","ʏ","coronal","nasal","cc","pund","pʰʏnt","no",0,12,12,25,"space",2.1197772026,,,"2016_May_31_1427",59.9736329605,"icelandic","brs02"
40,30,"m","comb","n","cvnc","a","labial","nasal","cc","kamb","kʰamp","no",0,13,13,23,"space",2.3030261993,,,"2016_May_31_1427",59.9736329605,"icelandic","brs02"
41,30,"m","comb","n","cvnc","a","labial","nasal","cc","kamb","kʰamp","no",0,13,13,23,"space",2.337223053,,,"2016_May_31_1427",59.9736329605,"icelandic","brs02"
42,30,"m","comb","n","cvnc","a","labial","nasal","cc","kamb","kʰamp","no",0,13,13,23,"space",2.3365058899,,,"2016_May_31_1427",59.9736329605,"icelandic","brs02"
43,51,"l̥","milk","v","ccvvccv","ou","coronal","lateral","ccv","mjólka","mjoul̥ka","yes",0,14,14,49,"space",2.5198259354,,,"2016_May_31_1427",59.9736329605,"icelandic","brs02"
44,51,"l̥","milk","v","ccvvccv","ou","coronal","lateral","ccv","mjólka","mjoul̥ka","yes",0,14,14,49,"space",2.3035740852,,,"2016_May_31_1427",59.9736329605,"icelandic","brs02"
45,51,"l̥","milk","v","ccvvccv","ou","coronal","lateral","ccv","mjólka","mjoul̥ka","yes",0,14,14,49,"space",2.4530057907,,,"2016_May_31_1427",59.9736329605,"icelandic","brs02"
46,29,"m̥","moustache","n","cvnc","a","labial","nasal","cc","kamp","kʰam̥p","yes",0,15,15,22,"space",2.3196730614,,,"2016_May_31_1427",59.9736329605,"icelandic","brs02"
47,29,"m̥","moustache","n","cvnc","a","labial","nasal","cc","kamp","kʰam̥p","yes",0,15,15,22,"space",2.0531198978,,,"2016_May_31_1427",59.9736329605,"icelandic","brs02"
48,29,"m̥","moustache","n","cvnc","a","labial","nasal","cc","kamp","kʰam̥p","yes",0,15,15,22,"space",2.1695289612,,,"2016_May_31_1427",59.9736329605,"icelandic","brs02"
49,31,"n̥","decoration","n","cvnc","ʏ","coronal","nasal","cc","punt","pʰʏn̥t","yes",0,16,16,24,"space",2.2537670136,,,"2016_May_31_1427",59.9736329605,"icelandic","brs02"
50,31,"n̥","decoration","n","cvnc","ʏ","coronal","nasal","cc","punt","pʰʏn̥t","yes",0,16,16,24,"space",2.3195941448,,,"2016_May_31_1427",59.9736329605,"icelandic","brs02"
51,31,"n̥","decoration","n","cvnc","ʏ","coronal","nasal","cc","punt","pʰʏn̥t","yes",0,16,16,24,"space",2.4365780354,,,"2016_May_31_1427",59.9736329605,"icelandic","brs02"
52,50,"r","scream","n","vrcv","o","coronal","rhotic","ccv","orga","orka","no",0,17,17,48,"space",2.4015491009,,,"2016_May_31_1427",59.9736329605,"icelandic","brs02"
53,50,"r","scream","n","vrcv","o","coronal","rhotic","ccv","orga","orka","no",0,17,17,48,"space",2.1695730686,,,"2016_May_31_1427",59.9736329605,"icelandic","brs02"
54,50,"r","scream","n","vrcv","o","coronal","rhotic","ccv","orga","orka","no",0,17,17,48,"space",2.2028419972,,,"2016_May_31_1427",59.9736329605,"icelandic","brs02"
55,7,"ʰt","far and wide","adv","cvcc","i","coronal","stop","cc","vítt","viʰt","yes",0,18,18,6,"space",2.3531198502,,,"2016_May_31_1427",59.9736329605,"icelandic","brs02"
56,7,"ʰt","far and wide","adv","cvcc","i","coronal","stop","cc","vítt","viʰt","yes",0,18,18,6,"space",2.2028839588,,,"2016_May_31_1427",59.9736329605,"icelandic","brs02"
57,7,"ʰt","far and wide","adv","cvcc","i","coronal","stop","cc","vítt","viʰt","yes",0,18,18,6,"space",1.9530420303,,,"2016_May_31_1427",59.9736329605,"icelandic","brs02"
58,41,"n̥","want","v","cvccv","a","coronal","nasal","ccv","vanta","van̥ta","yes",0,19,19,44,"space",2.2697710991,,,"2016_May_31_1427",59.9736329605,"icelandic","brs02"
59,41,"n̥","want","v","cvccv","a","coronal","nasal","ccv","vanta","van̥ta","yes",0,19,19,44,"space",2.0529661179,,,"2016_May_31_1427",59.9736329605,"icelandic","brs02"
60,41,"n̥","want","v","cvccv","a","coronal","nasal","ccv","vanta","van̥ta","yes",0,19,19,44,"space",2.4530549049,,,"2016_May_31_1427",59.9736329605,"icelandic","brs02"
61,39,"n̥","decoration","n","cvncv","ʏ","coronal","nasal","ccv","punta","pʰʏn̥ta","yes",0,20,20,42,"space",3.0375699997,,,"2016_May_31_1427",59.9736329605,"icelandic","brs02"
62,39,"n̥","decoration","n","cvncv","ʏ","coronal","nasal","ccv","punta","pʰʏn̥ta","yes",0,20,20,42,"space",2.5366389751,,,"2016_May_31_1427",59.9736329605,"icelandic","brs02"
63,39,"n̥","decoration","n","cvncv","ʏ","coronal","nasal","ccv","punta","pʰʏn̥ta","yes",0,20,20,42,"space",2.0866777897,,,"2016_May_31_1427",59.9736329605,"icelandic","brs02"
64,4,"kk","dew","n","cvcc","œ","velar","stop","cc","dögg","tœkk","no",0,21,21,3,"space",2.6033229828,,,"2016_May_31_1427",59.9736329605,"icelandic","brs02"
65,4,"kk","dew","n","cvcc","œ","velar","stop","cc","dögg","tœkk","no",0,21,21,3,"space",2.3197569847,,,"2016_May_31_1427",59.9736329605,"icelandic","brs02"
66,4,"kk","dew","n","cvcc","œ","velar","stop","cc","dögg","tœkk","no",0,21,21,3,"space",2.3530571461,,,"2016_May_31_1427",59.9736329605,"icelandic","brs02"
67,6,"pp","block of wood","n","cvcc","ʏ","labial","stop","cc","kubb","kʰʏpp","no",0,22,22,5,"space",2.5349769592,,,"2016_May_31_1427",59.9736329605,"icelandic","brs02"
68,6,"pp","block of wood","n","cvcc","ʏ","labial","stop","cc","kubb","kʰʏpp","no",0,22,22,5,"space",2.5198128223,,,"2016_May_31_1427",59.9736329605,"icelandic","brs02"
69,6,"pp","block of wood","n","cvcc","ʏ","labial","stop","cc","kubb","kʰʏpp","no",0,22,22,5,"space",2.8703820705,,,"2016_May_31_1427",59.9736329605,"icelandic","brs02"
70,9,"ʰt","thaw","v","cvcc","i","coronal","stop","cc","þítt","θiʰt","yes",0,23,23,8,"space",2.5699629784,,,"2016_May_31_1427",59.9736329605,"icelandic","brs02"
71,9,"ʰt","thaw","v","cvcc","i","coronal","stop","cc","þítt","θiʰt","yes",0,23,23,8,"space",2.3863480091,,,"2016_May_31_1427",59.9736329605,"icelandic","brs02"
72,9,"ʰt","thaw","v","cvcc","i","coronal","stop","cc","þítt","θiʰt","yes",0,23,23,8,"space",2.4865109921,,,"2016_May_31_1427",59.9736329605,"icelandic","brs02"
73,28,"tt","pike","n","cvccv","e","coronal","stop","ccv","gedda","ketta","no",0,24,24,37,"space",2.5530650616,,,"2016_May_31_1427",59.9736329605,"icelandic","brs02"
74,28,"tt","pike","n","cvccv","e","coronal","stop","ccv","gedda","ketta","no",0,24,24,37,"space",2.0195760727,,,"2016_May_31_1427",59.9736329605,"icelandic","brs02"
75,28,"tt","pike","n","cvccv","e","coronal","stop","ccv","gedda","ketta","no",0,24,24,37,"space",2.1197779179,,,"2016_May_31_1427",59.9736329605,"icelandic","brs02"
76,37,"m̥","hero","n","cvncv","e","labial","nasal","ccv","kempa","kʰem̥pa","yes",0,25,25,40,"space",2.0530591011,,,"2016_May_31_1427",59.9736329605,"icelandic","brs02"
77,37,"m̥","hero","n","cvncv","e","labial","nasal","ccv","kempa","kʰem̥pa","yes",0,25,25,40,"space",2.236371994,,,"2016_May_31_1427",59.9736329605,"icelandic","brs02"
78,37,"m̥","hero","n","cvncv","e","labial","nasal","ccv","kempa","kʰem̥pa","yes",0,25,25,40,"space",2.2697691917,,,"2016_May_31_1427",59.9736329605,"icelandic","brs02"
79,13,"ʰt","push","v","vcc","i","coronal","stop","cc","ýtt","iʰt","yes",0,26,26,10,"space",2.386300087,,,"2016_May_31_1427",59.9736329605,"icelandic","brs02"
80,13,"ʰt","push","v","vcc","i","coronal","stop","cc","ýtt","iʰt","yes",0,26,26,10,"space",2.0697219372,,,"2016_May_31_1427",59.9736329605,"icelandic","brs02"
81,13,"ʰt","push","v","vcc","i","coronal","stop","cc","ýtt","iʰt","yes",0,26,26,10,"space",2.1372818947,,,"2016_May_31_1427",59.9736329605,"icelandic","brs02"
82,3,"ʰk","dark","agg","cvcc","œ","velar","stop","cc","dökk","tœʰk","yes",0,27,27,2,"space",2.436604023,,,"2016_May_31_1427",59.9736329605,"icelandic","brs02"
83,3,"ʰk","dark","agg","cvcc","œ","velar","stop","cc","dökk","tœʰk","yes",0,27,27,2,"space",2.0028009415,,,"2016_May_31_1427",59.9736329605,"icelandic","brs02"
84,3,"ʰk","dark","agg","cvcc","œ","velar","stop","cc","dökk","tœʰk","yes",0,27,27,2,"space",2.1036040783,,,"2016_May_31_1427",59.9736329605,"icelandic","brs02"
85,5,"ʰp","chamber pot","n","cvcc","o","labial","stop","cc","kopp","kʰoʰp","yes",0,28,28,4,"space",3.5371310711,,,"2016_May_31_1427",59.9736329605,"icelandic","brs02"
86,5,"ʰp","chamber pot","n","cvcc","o","labial","stop","cc","kopp","kʰoʰp","yes",0,28,28,4,"space",1.7033779621,,,"2016_May_31_1427",59.9736329605,"icelandic","brs02"
87,5,"ʰp","chamber pot","n","cvcc","o","labial","stop","cc","kopp","kʰoʰp","yes",0,28,28,4,"space",1.9206809998,,,"2016_May_31_1427",59.9736329605,"icelandic","brs02"
88,26,"kk","barrel","n","cvccv","a","velar","stop","ccv","kagga","kʰakka","no",0,29,29,35,"space",2.4374811649,,,"2016_May_31_1427",59.9736329605,"icelandic","brs02"
89,26,"kk","barrel","n","cvccv","a","velar","stop","ccv","kagga","kʰakka","no",0,29,29,35,"space",1.9540019035,,,"2016_May_31_1427",59.9736329605,"icelandic","brs02"
90,26,"kk","barrel","n","cvccv","a","velar","stop","ccv","kagga","kʰakka","no",0,29,29,35,"space",1.8359911442,,,"2016_May_31_1427",59.9736329605,"icelandic","brs02"
91,19,"s","sediment","n","cvcc","e","coronal","stop","cc","sets","sess","no",0,30,30,16,"space",2.7356588841,,,"2016_May_31_1427",59.9736329605,"icelandic","brs02"
92,19,"s","sediment","n","cvcc","e","coronal","stop","cc","sets","sess","no",0,30,30,16,"space",2.1191911697,,,"2016_May_31_1427",59.9736329605,"icelandic","brs02"
93,19,"s","sediment","n","cvcc","e","coronal","stop","cc","sets","sess","no",0,30,30,16,"space",1.7527730465,,,"2016_May_31_1427",59.9736329605,"icelandic","brs02"
94,14,"tt","sharpen","v","vcc","ɪ","coronal","stop","cc","ydd","ɪtt","no",0,31,31,11,"space",2.0196881294,,,"2016_May_31_1427",59.9736329605,"icelandic","brs02"
95,14,"tt","sharpen","v","vcc","ɪ","coronal","stop","cc","ydd","ɪtt","no",0,31,31,11,"space",1.4692380428,,,"2016_May_31_1427",59.9736329605,"icelandic","brs02"
96,14,"tt","sharpen","v","vcc","ɪ","coronal","stop","cc","ydd","ɪtt","no",0,31,31,11,"space",2.2364559174,,,"2016_May_31_1427",59.9736329605,"icelandic","brs02"
97,25,"ʰk","key","n","cvccv","a","velar","stop","ccv","takka","tʰaʰka","yes",0,32,32,34,"space",2.4013118744,,,"2016_May_31_1427",59.9736329605,"icelandic","brs02"
98,25,"ʰk","key","n","cvccv","a","velar","stop","ccv","takka","tʰaʰka","yes",0,32,32,34,"space",2.1530311108,,,"2016_May_31_1427",59.9736329605,"icelandic","brs02"
99,25,"ʰk","key","n","cvccv","a","velar","stop","ccv","takka","tʰaʰka","yes",0,32,32,34,"space",1.8702368736,,,"2016_May_31_1427",59.9736329605,"icelandic","brs02"
100,53,"p","avenge","v","cvccv","e","labial","stop","ccv","hefna","hepna","no",0,33,33,51,"space",2.8698608875,,,"2016_May_31_1427",59.9736329605,"icelandic","brs02"
101,53,"p","avenge","v","cvccv","e","labial","stop","ccv","hefna","hepna","no",0,33,33,51,"space",2.1696848869,,,"2016_May_31_1427",59.9736329605,"icelandic","brs02"
102,53,"p","avenge","v","cvccv","e","labial","stop","ccv","hefna","hepna","no",0,33,33,51,"space",1.9196650982,,,"2016_May_31_1427",59.9736329605,"icelandic","brs02"
103,15,"ʰt","point","n","vvcc","ou","coronal","stop","cc","ótt","ouʰt","yes",0,34,34,12,"space",2.3197200298,,,"2016_May_31_1427",59.9736329605,"icelandic","brs02"
104,15,"ʰt","point","n","vvcc","ou","coronal","stop","cc","ótt","ouʰt","yes",0,34,34,12,"space",1.7362558842,,,"2016_May_31_1427",59.9736329605,"icelandic","brs02"
105,15,"ʰt","point","n","vvcc","ou","coronal","stop","cc","ótt","ouʰt","yes",0,34,34,12,"space",1.8537988663,,,"2016_May_31_1427",59.9736329605,"icelandic","brs02"
106,34,"m","comb","v","cvccv","e","labial","nasal","cc","kembdi","kemti","no",0,35,35,27,"space",2.2696900368,,,"2016_May_31_1427",59.9736329605,"icelandic","brs02"
107,34,"m","comb","v","cvccv","e","labial","nasal","cc","kembdi","kemti","no",0,35,35,27,"space",1.7202351093,,,"2016_May_31_1427",59.9736329605,"icelandic","brs02"
108,34,"m","comb","v","cvccv","e","labial","nasal","cc","kembdi","kemti","no",0,35,35,27,"space",2.1199171543,,,"2016_May_31_1427",59.9736329605,"icelandic","brs02"
109,2,"kk","beak","n","cvcc","o","velar","stop","cc","gogg","kokk","no",0,36,36,1,"space",2.220705986,,,"2016_May_31_1427",59.9736329605,"icelandic","brs02"
110,2,"kk","beak","n","cvcc","o","velar","stop","cc","gogg","kokk","no",0,36,36,1,"space",2.1698410511,,,"2016_May_31_1427",59.9736329605,"icelandic","brs02"
111,2,"kk","beak","n","cvcc","o","velar","stop","cc","gogg","kokk","no",0,36,36,1,"space",2.1201500893,,,"2016_May_31_1427",59.9736329605,"icelandic","brs02"
112,33,"m̥","comb","v","cvcc","e","labial","nasal","cc","kembt","kem̥t","yes",0,37,37,26,"space",2.9701769352,,,"2016_May_31_1427",59.9736329605,"icelandic","brs02"
113,33,"m̥","comb","v","cvcc","e","labial","nasal","cc","kembt","kem̥t","yes",0,37,37,26,"space",2.1695151329,,,"2016_May_31_1427",59.9736329605,"icelandic","brs02"
114,33,"m̥","comb","v","cvcc","e","labial","nasal","cc","kembt","kem̥t","yes",0,37,37,26,"space",1.7539901733,,,"2016_May_31_1427",59.9736329605,"icelandic","brs02"
115,38,"m","comb","v","cvncv","e","labial","nasal","ccv","kemba","kʰempa","no",0,38,38,41,"space",2.0531179905,,,"2016_May_31_1427",59.9736329605,"icelandic","brs02"
116,38,"m","comb","v","cvncv","e","labial","nasal","ccv","kemba","kʰempa","no",0,38,38,41,"space",1.7538888454,,,"2016_May_31_1427",59.9736329605,"icelandic","brs02"
117,38,"m","comb","v","cvncv","e","labial","nasal","ccv","kemba","kʰempa","no",0,38,38,41,"space",1.8356189728,,,"2016_May_31_1427",59.9736329605,"icelandic","brs02"
118,48,"l","castrate","v","cvlcv","e","coronal","lateral","ccv","gelda","kelta","no",0,39,39,46,"space",2.2530298233,,,"2016_May_31_1427",59.9736329605,"icelandic","brs02"
119,48,"l","castrate","v","cvlcv","e","coronal","lateral","ccv","gelda","kelta","no",0,39,39,46,"space",1.7866048813,,,"2016_May_31_1427",59.9736329605,"icelandic","brs02"
120,48,"l","castrate","v","cvlcv","e","coronal","lateral","ccv","gelda","kelta","no",0,39,39,46,"space",2.3198730946,,,"2016_May_31_1427",59.9736329605,"icelandic","brs02"
121,16,"tt","fast","adv","vcc","o","coronal","stop","cc","odd","ott","no",0,40,40,13,"space",1.8187141419,,,"2016_May_31_1427",59.9736329605,"icelandic","brs02"
122,16,"tt","fast","adv","vcc","o","coronal","stop","cc","odd","ott","no",0,40,40,13,"space",1.8695378304,,,"2016_May_31_1427",59.9736329605,"icelandic","brs02"
123,16,"tt","fast","adv","vcc","o","coronal","stop","cc","odd","ott","no",0,40,40,13,"space",1.919878006,,,"2016_May_31_1427",59.9736329605,"icelandic","brs02"
124,18,"ʰt","sweet","adj","cvvcc","ai","coronal","stop","cc","sætt","saiʰt","yes",0,41,41,15,"space",3.0711569786,,,"2016_May_31_1427",59.9736329605,"icelandic","brs02"
125,18,"ʰt","sweet","adj","cvvcc","ai","coronal","stop","cc","sætt","saiʰt","yes",0,41,41,15,"space",1.6528809071,,,"2016_May_31_1427",59.9736329605,"icelandic","brs02"
126,18,"ʰt","sweet","adj","cvvcc","ai","coronal","stop","cc","sætt","saiʰt","yes",0,41,41,15,"space",2.2030351162,,,"2016_May_31_1427",59.9736329605,"icelandic","brs02"
127,11,"ʰt","feed","v","cvcc","ai","coronal","stop","cc","fætt","faiʰt","yes",0,42,42,9,"space",2.0199790001,,,"2016_May_31_1427",59.9736329605,"icelandic","brs02"
128,11,"ʰt","feed","v","cvcc","ai","coronal","stop","cc","fætt","faiʰt","yes",0,42,42,9,"space",2.0363330841,,,"2016_May_31_1427",59.9736329605,"icelandic","brs02"
129,11,"ʰt","feed","v","cvcc","ai","coronal","stop","cc","fætt","faiʰt","yes",0,42,42,9,"space",1.9863710403,,,"2016_May_31_1427",59.9736329605,"icelandic","brs02"
130,60,"ʰp","tiptoe","v","cvccv","ɪ","labial","stop","ccv","tipla","tɪʰpla","yes",0,43,43,58,"space",2.3531329632,,,"2016_May_31_1427",59.9736329605,"icelandic","brs02"
131,60,"ʰp","tiptoe","v","cvccv","ɪ","labial","stop","ccv","tipla","tɪʰpla","yes",0,43,43,58,"space",1.9704802036,,,"2016_May_31_1427",59.9736329605,"icelandic","brs02"
132,60,"ʰp","tiptoe","v","cvccv","ɪ","labial","stop","ccv","tipla","tɪʰpla","yes",0,43,43,58,"space",2.1204378605,,,"2016_May_31_1427",59.9736329605,"icelandic","brs02"
133,57,"p","part","n","cvccv","a","labial","stop","ccv","kafli","kapli","no",0,44,44,55,"space",2.086329937,,,"2016_May_31_1427",59.9736329605,"icelandic","brs02"
134,57,"p","part","n","cvccv","a","labial","stop","ccv","kafli","kapli","no",0,44,44,55,"space",1.7359228134,,,"2016_May_31_1427",59.9736329605,"icelandic","brs02"
135,57,"p","part","n","cvccv","a","labial","stop","ccv","kafli","kapli","no",0,44,44,55,"space",1.8862979412,,,"2016_May_31_1427",59.9736329605,"icelandic","brs02"
136,47,"l̥","bark","v","cvlcv","e","coronal","lateral","ccv","gelta","kel̥ta","yes",0,45,45,59,"space",2.1197578907,,,"2016_May_31_1427",59.9736329605,"icelandic","brs02"
137,47,"l̥","bark","v","cvlcv","e","coronal","lateral","ccv","gelta","kel̥ta","yes",0,45,45,59,"space",1.8861839771,,,"2016_May_31_1427",59.9736329605,"icelandic","brs02"
138,47,"l̥","bark","v","cvlcv","e","coronal","lateral","ccv","gelta","kel̥ta","yes",0,45,45,59,"space",2.0029380322,,,"2016_May_31_1427",59.9736329605,"icelandic","brs02"
139,44,"nn","cheek","n","cvcc","i","coronal","nasal","cc","kinn","kʰɪnn","no",0,46,46,29,"space",1.9363660812,,,"2016_May_31_1427",59.9736329605,"icelandic","brs02"
140,44,"nn","cheek","n","cvcc","i","coronal","nasal","cc","kinn","kʰɪnn","no",0,46,46,29,"space",2.1862359047,,,"2016_May_31_1427",59.9736329605,"icelandic","brs02"
141,44,"nn","cheek","n","cvcc","i","coronal","nasal","cc","kinn","kʰɪnn","no",0,46,46,29,"space",1.9530220032,,,"2016_May_31_1427",59.9736329605,"icelandic","brs02"
142,40,"n","pound","n","cvncv","ʏ","coronal","nasal","ccv","punda","pʰʏnta","no",0,47,47,43,"space",2.1536540985,,,"2016_May_31_1427",59.9736329605,"icelandic","brs02"
143,40,"n","pound","n","cvncv","ʏ","coronal","nasal","ccv","punda","pʰʏnta","no",0,47,47,43,"space",1.902878046,,,"2016_May_31_1427",59.9736329605,"icelandic","brs02"
144,40,"n","pound","n","cvncv","ʏ","coronal","nasal","ccv","punda","pʰʏnta","no",0,47,47,43,"space",1.7528162003,,,"2016_May_31_1427",59.9736329605,"icelandic","brs02"
145,55,"p","navel","n","cvccv","a","labial","stop","ccv","nafla","napla","no",0,48,48,53,"space",2.5041642189,,,"2016_May_31_1427",59.9736329605,"icelandic","brs02"
146,55,"p","navel","n","cvccv","a","labial","stop","ccv","nafla","napla","no",0,48,48,53,"space",1.634649992,,,"2016_May_31_1427",59.9736329605,"icelandic","brs02"
147,55,"p","navel","n","cvccv","a","labial","stop","ccv","nafla","napla","no",0,48,48,53,"space",2.2038660049,,,"2016_May_31_1427",59.9736329605,"icelandic","brs02"
148,1,"ʰk","cook","n","cvcc","o","velar","stop","cc","kokk","kʰoʰk","yes",0,49,49,0,"space",3.1869440079,,,"2016_May_31_1427",59.9736329605,"icelandic","brs02"
149,1,"ʰk","cook","n","cvcc","o","velar","stop","cc","kokk","kʰoʰk","yes",0,49,49,0,"space",2.0363099575,,,"2016_May_31_1427",59.9736329605,"icelandic","brs02"
150,1,"ʰk","cook","n","cvcc","o","velar","stop","cc","kokk","kʰoʰk","yes",0,49,49,0,"space",2.0535879135,,,"2016_May_31_1427",59.9736329605,"icelandic","brs02"
151,43,"t","smart","adj","cvcc","i","coronal","stop","cc","fínn","fitn̥","yes",0,50,50,28,"space",1.9029760361,,,"2016_May_31_1427",59.9736329605,"icelandic","brs02"
152,43,"t","smart","adj","cvcc","i","coronal","stop","cc","fínn","fitn̥","yes",0,50,50,28,"space",2.0866029263,,,"2016_May_31_1427",59.9736329605,"icelandic","brs02"
153,43,"t","smart","adj","cvcc","i","coronal","stop","cc","fínn","fitn̥","yes",0,50,50,28,"space",2.1849517822,,,"2016_May_31_1427",59.9736329605,"icelandic","brs02"
154,21,"s","fat","adj","cvvcc","ei","coronal","stop","cc","feits","feiss","no",0,51,51,18,"space",2.5032451153,,,"2016_May_31_1427",59.9736329605,"icelandic","brs02"
155,21,"s","fat","adj","cvvcc","ei","coronal","stop","cc","feits","feiss","no",0,51,51,18,"space",1.5359008312,,,"2016_May_31_1427",59.9736329605,"icelandic","brs02"
156,21,"s","fat","adj","cvvcc","ei","coronal","stop","cc","feits","feiss","no",0,51,51,18,"space",1.8536729813,,,"2016_May_31_1427",59.9736329605,"icelandic","brs02"
157,49,"r̥","energy","n","vrcv","o","coronal","rhotic","ccv","orka","or̥ka","yes",0,52,52,47,"space",2.102959156,,,"2016_May_31_1427",59.9736329605,"icelandic","brs02"
158,49,"r̥","energy","n","vrcv","o","coronal","rhotic","ccv","orka","or̥ka","yes",0,52,52,47,"space",2.0530209541,,,"2016_May_31_1427",59.9736329605,"icelandic","brs02"
159,49,"r̥","energy","n","vrcv","o","coronal","rhotic","ccv","orka","or̥ka","yes",0,52,52,47,"space",1.8532891274,,,"2016_May_31_1427",59.9736329605,"icelandic","brs02"
160,8,"tt","width","n","cvcc","i","coronal","stop","cc","vídd","vitt","no",0,53,53,7,"space",2.08710289,,,"2016_May_31_1427",59.9736329605,"icelandic","brs02"
161,8,"tt","width","n","cvcc","i","coronal","stop","cc","vídd","vitt","no",0,53,53,7,"space",2.2024149895,,,"2016_May_31_1427",59.9736329605,"icelandic","brs02"
162,8,"tt","width","n","cvcc","i","coronal","stop","cc","vídd","vitt","no",0,53,53,7,"space",1.5529448986,,,"2016_May_31_1427",59.9736329605,"icelandic","brs02"
163,17,"s","sweet","adj","cvvcc","ai","coronal","stop","cc","sæts","saiss","no",0,54,54,14,"space",2.7366189957,,,"2016_May_31_1427",59.9736329605,"icelandic","brs02"
164,17,"s","sweet","adj","cvvcc","ai","coronal","stop","cc","sæts","saiss","no",0,54,54,14,"space",1.6027219296,,,"2016_May_31_1427",59.9736329605,"icelandic","brs02"
165,17,"s","sweet","adj","cvvcc","ai","coronal","stop","cc","sæts","saiss","no",0,54,54,14,"space",2.3848650456,,,"2016_May_31_1427",59.9736329605,"icelandic","brs02"
166,12,"tt","feed","v","cvccv","ai","coronal","stop","ccv","fæddi","faitti","no",0,55,55,33,"space",1.9363069534,,,"2016_May_31_1427",59.9736329605,"icelandic","brs02"
167,12,"tt","feed","v","cvccv","ai","coronal","stop","ccv","fæddi","faitti","no",0,55,55,33,"space",2.002835989,,,"2016_May_31_1427",59.9736329605,"icelandic","brs02"
168,12,"tt","feed","v","cvccv","ai","coronal","stop","ccv","fæddi","faitti","no",0,55,55,33,"space",1.6861281395,,,"2016_May_31_1427",59.9736329605,"icelandic","brs02"
169,42,"n","do st carefully","v","cvncv","a","coronal","nasal","ccv","vanda","vanta","no",0,56,56,45,"space",2.2031600475,,,"2016_May_31_1427",59.9736329605,"icelandic","brs02"
170,42,"n","do st carefully","v","cvncv","a","coronal","nasal","ccv","vanda","vanta","no",0,56,56,45,"space",2.1372761726,,,"2016_May_31_1427",59.9736329605,"icelandic","brs02"
171,42,"n","do st carefully","v","cvncv","a","coronal","nasal","ccv","vanda","vanta","no",0,56,56,45,"space",1.8863918781,,,"2016_May_31_1427",59.9736329605,"icelandic","brs02"
172,45,"l","complex","agg","cvlc","ʏ","coronal","lateral","cc","duld","tʏlt","no",0,57,57,30,"space",2.0864849091,,,"2016_May_31_1427",59.9736329605,"icelandic","brs02"
173,45,"l","complex","agg","cvlc","ʏ","coronal","lateral","cc","duld","tʏlt","no",0,57,57,30,"space",2.0530290604,,,"2016_May_31_1427",59.9736329605,"icelandic","brs02"
174,45,"l","complex","agg","cvlc","ʏ","coronal","lateral","cc","duld","tʏlt","no",0,57,57,30,"space",1.9872059822,,,"2016_May_31_1427",59.9736329605,"icelandic","brs02"
175,59,"p","play chess","v","cvccv","e","labial","stop","ccv","tefla","tepla","no",0,58,58,57,"space",2.1030721664,,,"2016_May_31_1427",59.9736329605,"icelandic","brs02"
176,59,"p","play chess","v","cvccv","e","labial","stop","ccv","tefla","tepla","no",0,58,58,57,"space",1.5193660259,,,"2016_May_31_1427",59.9736329605,"icelandic","brs02"
177,59,"p","play chess","v","cvccv","e","labial","stop","ccv","tefla","tepla","no",0,58,58,57,"space",1.8695139885,,,"2016_May_31_1427",59.9736329605,"icelandic","brs02"
178,24,"ʰt","wet","adj","cvvcc","o","coronal","stop","cc","vott","voʰt","yes",0,59,59,21,"space",2.0039680004,,,"2016_May_31_1427",59.9736329605,"icelandic","brs02"
179,24,"ʰt","wet","adj","cvvcc","o","coronal","stop","cc","vott","voʰt","yes",0,59,59,21,"space",1.8363461494,,,"2016_May_31_1427",59.9736329605,"icelandic","brs02"
180,24,"ʰt","wet","adj","cvvcc","o","coronal","stop","cc","vott","voʰt","yes",0,59,59,21,"space",1.3859760761,,,"2016_May_31_1427",59.9736329605,"icelandic","brs02"
,,,,,,,,,,,,,,,,,,,"space",4.3708138466,"2016_May_31_1427",59.9736329605,"icelandic","brs02"
