"idx","cond_no","cons","eng","pos","syl","vow","place","manner","context","lex","ph","asp","trials.thisRepN","trials.thisTrialN","trials.thisN","trials.thisIndex","key_resp_4.keys","key_resp_4.rt","key_resp_7.keys","key_resp_7.rt","date","frameRate","expName","participant"
1,37,"m̥","hero","n","cvncv","e","labial","nasal","ccv","kempa","kʰem̥pa","yes",0,0,0,40,"space",6.8718919754,,,"2016_May_31_1458",59.7782351164,"icelandic","bte03"
2,37,"m̥","hero","n","cvncv","e","labial","nasal","ccv","kempa","kʰem̥pa","yes",0,0,0,40,"space",5.054284811,,,"2016_May_31_1458",59.7782351164,"icelandic","bte03"
3,37,"m̥","hero","n","cvncv","e","labial","nasal","ccv","kempa","kʰem̥pa","yes",0,0,0,40,"space",6.7719190121,,,"2016_May_31_1458",59.7782351164,"icelandic","bte03"
4,2,"kk","beak","n","cvcc","o","velar","stop","cc","gogg","kokk","no",0,1,1,1,"space",5.0861639977,,,"2016_May_31_1458",59.7782351164,"icelandic","bte03"
5,2,"kk","beak","n","cvcc","o","velar","stop","cc","gogg","kokk","no",0,1,1,1,"space",4.0039899349,,,"2016_May_31_1458",59.7782351164,"icelandic","bte03"
6,2,"kk","beak","n","cvcc","o","velar","stop","cc","gogg","kokk","no",0,1,1,1,"space",4.68846488,,,"2016_May_31_1458",59.7782351164,"icelandic","bte03"
7,13,"ʰt","push","v","vcc","i","coronal","stop","cc","ýtt","iʰt","yes",0,2,2,10,"space",5.8716030121,,,"2016_May_31_1458",59.7782351164,"icelandic","bte03"
8,13,"ʰt","push","v","vcc","i","coronal","stop","cc","ýtt","iʰt","yes",0,2,2,10,"space",4.0354690552,,,"2016_May_31_1458",59.7782351164,"icelandic","bte03"
9,13,"ʰt","push","v","vcc","i","coronal","stop","cc","ýtt","iʰt","yes",0,2,2,10,"space",4.971585989,,,"2016_May_31_1458",59.7782351164,"icelandic","bte03"
10,34,"m","comb","v","cvccv","e","labial","nasal","cc","kembdi","kemti","no",0,3,3,27,"space",6.3701779842,,,"2016_May_31_1458",59.7782351164,"icelandic","bte03"
11,34,"m","comb","v","cvccv","e","labial","nasal","cc","kembdi","kemti","no",0,3,3,27,"space",4.6707429886,,,"2016_May_31_1458",59.7782351164,"icelandic","bte03"
12,34,"m","comb","v","cvccv","e","labial","nasal","cc","kembdi","kemti","no",0,3,3,27,"space",5.7880949974,,,"2016_May_31_1458",59.7782351164,"icelandic","bte03"
13,42,"n","do st carefully","v","cvncv","a","coronal","nasal","ccv","vanda","vanta","no",0,4,4,45,"space",5.5057330132,,,"2016_May_31_1458",59.7782351164,"icelandic","bte03"
14,42,"n","do st carefully","v","cvncv","a","coronal","nasal","ccv","vanda","vanta","no",0,4,4,45,"space",4.3545429707,,,"2016_May_31_1458",59.7782351164,"icelandic","bte03"
15,42,"n","do st carefully","v","cvncv","a","coronal","nasal","ccv","vanda","vanta","no",0,4,4,45,"space",5.8049120903,,,"2016_May_31_1458",59.7782351164,"icelandic","bte03"
16,1,"ʰk","cook","n","cvcc","o","velar","stop","cc","kokk","kʰoʰk","yes",0,5,5,0,"space",5.8714389801,,,"2016_May_31_1458",59.7782351164,"icelandic","bte03"
17,1,"ʰk","cook","n","cvcc","o","velar","stop","cc","kokk","kʰoʰk","yes",0,5,5,0,"space",5.5722110272,,,"2016_May_31_1458",59.7782351164,"icelandic","bte03"
18,1,"ʰk","cook","n","cvcc","o","velar","stop","cc","kokk","kʰoʰk","yes",0,5,5,0,"space",4.2380330563,,,"2016_May_31_1458",59.7782351164,"icelandic","bte03"
19,47,"l̥","bark","v","cvlcv","e","coronal","lateral","ccv","gelta","kel̥ta","yes",0,6,6,59,"space",5.4546079636,,,"2016_May_31_1458",59.7782351164,"icelandic","bte03"
20,47,"l̥","bark","v","cvlcv","e","coronal","lateral","ccv","gelta","kel̥ta","yes",0,6,6,59,"space",5.0878860951,,,"2016_May_31_1458",59.7782351164,"icelandic","bte03"
21,47,"l̥","bark","v","cvlcv","e","coronal","lateral","ccv","gelta","kel̥ta","yes",0,6,6,59,"space",4.3205528259,,,"2016_May_31_1458",59.7782351164,"icelandic","bte03"
22,4,"kk","dew","n","cvcc","œ","velar","stop","cc","dögg","tœkk","no",0,7,7,3,"space",4.7043499947,,,"2016_May_31_1458",59.7782351164,"icelandic","bte03"
23,4,"kk","dew","n","cvcc","œ","velar","stop","cc","dögg","tœkk","no",0,7,7,3,"space",4.4542520046,,,"2016_May_31_1458",59.7782351164,"icelandic","bte03"
24,4,"kk","dew","n","cvcc","œ","velar","stop","cc","dögg","tœkk","no",0,7,7,3,"space",4.9210600853,,,"2016_May_31_1458",59.7782351164,"icelandic","bte03"
25,19,"s","sediment","n","cvcc","e","coronal","stop","cc","sets","sess","no",0,8,8,16,"space",8.4228777885,,,"2016_May_31_1458",59.7782351164,"icelandic","bte03"
26,19,"s","sediment","n","cvcc","e","coronal","stop","cc","sets","sess","no",0,8,8,16,"space",4.3876459599,,,"2016_May_31_1458",59.7782351164,"icelandic","bte03"
27,19,"s","sediment","n","cvcc","e","coronal","stop","cc","sets","sess","no",0,8,8,16,"space",5.5055971146,,,"2016_May_31_1458",59.7782351164,"icelandic","bte03"
28,23,"s","wet","adj","cvvcc","o","coronal","stop","cc","vots","voss","no",0,9,9,20,"space",7.3206048012,,,"2016_May_31_1458",59.7782351164,"icelandic","bte03"
29,23,"s","wet","adj","cvvcc","o","coronal","stop","cc","vots","voss","no",0,9,9,20,"space",5.2711911202,,,"2016_May_31_1458",59.7782351164,"icelandic","bte03"
30,23,"s","wet","adj","cvvcc","o","coronal","stop","cc","vots","voss","no",0,9,9,20,"space",4.8051230907,,,"2016_May_31_1458",59.7782351164,"icelandic","bte03"
31,5,"ʰp","chamber pot","n","cvcc","o","labial","stop","cc","kopp","kʰoʰp","yes",0,10,10,4,"space",4.0873539448,,,"2016_May_31_1458",59.7782351164,"icelandic","bte03"
32,5,"ʰp","chamber pot","n","cvcc","o","labial","stop","cc","kopp","kʰoʰp","yes",0,10,10,4,"space",3.5537359715,,,"2016_May_31_1458",59.7782351164,"icelandic","bte03"
33,5,"ʰp","chamber pot","n","cvcc","o","labial","stop","cc","kopp","kʰoʰp","yes",0,10,10,4,"space",3.7207400799,,,"2016_May_31_1458",59.7782351164,"icelandic","bte03"
34,49,"r̥","energy","n","vrcv","o","coronal","rhotic","ccv","orka","or̥ka","yes",0,11,11,47,"space",4.9217200279,,,"2016_May_31_1458",59.7782351164,"icelandic","bte03"
35,49,"r̥","energy","n","vrcv","o","coronal","rhotic","ccv","orka","or̥ka","yes",0,11,11,47,"space",4.8709139824,,,"2016_May_31_1458",59.7782351164,"icelandic","bte03"
36,49,"r̥","energy","n","vrcv","o","coronal","rhotic","ccv","orka","or̥ka","yes",0,11,11,47,"space",3.8706870079,,,"2016_May_31_1458",59.7782351164,"icelandic","bte03"
37,40,"n","pound","n","cvncv","ʏ","coronal","nasal","ccv","punda","pʰʏnta","no",0,12,12,43,"space",5.5714569092,,,"2016_May_31_1458",59.7782351164,"icelandic","bte03"
38,40,"n","pound","n","cvncv","ʏ","coronal","nasal","ccv","punda","pʰʏnta","no",0,12,12,43,"space",3.9205701351,,,"2016_May_31_1458",59.7782351164,"icelandic","bte03"
39,40,"n","pound","n","cvncv","ʏ","coronal","nasal","ccv","punda","pʰʏnta","no",0,12,12,43,"space",4.3372709751,,,"2016_May_31_1458",59.7782351164,"icelandic","bte03"
40,29,"m̥","moustache","n","cvnc","a","labial","nasal","cc","kamp","kʰam̥p","yes",0,13,13,22,"space",4.9044361115,,,"2016_May_31_1458",59.7782351164,"icelandic","bte03"
41,29,"m̥","moustache","n","cvnc","a","labial","nasal","cc","kamp","kʰam̥p","yes",0,13,13,22,"space",2.9534459114,,,"2016_May_31_1458",59.7782351164,"icelandic","bte03"
42,29,"m̥","moustache","n","cvnc","a","labial","nasal","cc","kamp","kʰam̥p","yes",0,13,13,22,"space",4.3206989765,,,"2016_May_31_1458",59.7782351164,"icelandic","bte03"
43,53,"p","avenge","v","cvccv","e","labial","stop","ccv","hefna","hepna","no",0,14,14,51,"space",4.7542099953,,,"2016_May_31_1458",59.7782351164,"icelandic","bte03"
44,53,"p","avenge","v","cvccv","e","labial","stop","ccv","hefna","hepna","no",0,14,14,51,"space",4.1857259274,,,"2016_May_31_1458",59.7782351164,"icelandic","bte03"
45,53,"p","avenge","v","cvccv","e","labial","stop","ccv","hefna","hepna","no",0,14,14,51,"space",5.2378470898,,,"2016_May_31_1458",59.7782351164,"icelandic","bte03"
46,27,"ʰt","fall","v","cvccv","e","coronal","stop","ccv","detta","teʰta","yes",0,15,15,36,"space",3.8872900009,,,"2016_May_31_1458",59.7782351164,"icelandic","bte03"
47,27,"ʰt","fall","v","cvccv","e","coronal","stop","ccv","detta","teʰta","yes",0,15,15,36,"space",3.0204429627,,,"2016_May_31_1458",59.7782351164,"icelandic","bte03"
48,27,"ʰt","fall","v","cvccv","e","coronal","stop","ccv","detta","teʰta","yes",0,15,15,36,"space",4.004709959,,,"2016_May_31_1458",59.7782351164,"icelandic","bte03"
49,38,"m","comb","v","cvncv","e","labial","nasal","ccv","kemba","kʰempa","no",0,16,16,41,"space",5.7048199177,,,"2016_May_31_1458",59.7782351164,"icelandic","bte03"
50,38,"m","comb","v","cvncv","e","labial","nasal","ccv","kemba","kʰempa","no",0,16,16,41,"space",2.9708719254,,,"2016_May_31_1458",59.7782351164,"icelandic","bte03"
51,38,"m","comb","v","cvncv","e","labial","nasal","ccv","kemba","kʰempa","no",0,16,16,41,"space",6.2551929951,,,"2016_May_31_1458",59.7782351164,"icelandic","bte03"
52,43,"t","smart","adj","cvcc","i","coronal","stop","cc","fínn","fitn̥","yes",0,17,17,28,"space",4.1711678505,,,"2016_May_31_1458",59.7782351164,"icelandic","bte03"
53,43,"t","smart","adj","cvcc","i","coronal","stop","cc","fínn","fitn̥","yes",0,17,17,28,"space",3.8204391003,,,"2016_May_31_1458",59.7782351164,"icelandic","bte03"
54,43,"t","smart","adj","cvcc","i","coronal","stop","cc","fínn","fitn̥","yes",0,17,17,28,"space",4.1206250191,,,"2016_May_31_1458",59.7782351164,"icelandic","bte03"
55,12,"tt","feed","v","cvccv","ai","coronal","stop","ccv","fæddi","faitti","no",0,18,18,33,"space",4.6882719994,,,"2016_May_31_1458",59.7782351164,"icelandic","bte03"
56,12,"tt","feed","v","cvccv","ai","coronal","stop","ccv","fæddi","faitti","no",0,18,18,33,"space",3.7855918407,,,"2016_May_31_1458",59.7782351164,"icelandic","bte03"
57,12,"tt","feed","v","cvccv","ai","coronal","stop","ccv","fæddi","faitti","no",0,18,18,33,"space",4.1709799767,,,"2016_May_31_1458",59.7782351164,"icelandic","bte03"
58,21,"s","fat","adj","cvvcc","ei","coronal","stop","cc","feits","feiss","no",0,19,19,18,"space",6.1039159298,,,"2016_May_31_1458",59.7782351164,"icelandic","bte03"
59,21,"s","fat","adj","cvvcc","ei","coronal","stop","cc","feits","feiss","no",0,19,19,18,"space",3.887294054,,,"2016_May_31_1458",59.7782351164,"icelandic","bte03"
60,21,"s","fat","adj","cvvcc","ei","coronal","stop","cc","feits","feiss","no",0,19,19,18,"space",2.6533448696,,,"2016_May_31_1458",59.7782351164,"icelandic","bte03"
61,48,"l","castrate","v","cvlcv","e","coronal","lateral","ccv","gelda","kelta","no",0,20,20,46,"space",4.3707149029,,,"2016_May_31_1458",59.7782351164,"icelandic","bte03"
62,48,"l","castrate","v","cvlcv","e","coronal","lateral","ccv","gelda","kelta","no",0,20,20,46,"space",3.1033411026,,,"2016_May_31_1458",59.7782351164,"icelandic","bte03"
63,48,"l","castrate","v","cvlcv","e","coronal","lateral","ccv","gelda","kelta","no",0,20,20,46,"space",5.3378732204,,,"2016_May_31_1458",59.7782351164,"icelandic","bte03"
64,7,"ʰt","far and wide","adv","cvcc","i","coronal","stop","cc","vítt","viʰt","yes",0,21,21,6,"space",3.9545090199,,,"2016_May_31_1458",59.7782351164,"icelandic","bte03"
65,7,"ʰt","far and wide","adv","cvcc","i","coronal","stop","cc","vítt","viʰt","yes",0,21,21,6,"space",4.0375840664,,,"2016_May_31_1458",59.7782351164,"icelandic","bte03"
66,7,"ʰt","far and wide","adv","cvcc","i","coronal","stop","cc","vítt","viʰt","yes",0,21,21,6,"space",4.8544130325,,,"2016_May_31_1458",59.7782351164,"icelandic","bte03"
67,8,"tt","width","n","cvcc","i","coronal","stop","cc","vídd","vitt","no",0,22,22,7,"space",5.4878370762,,,"2016_May_31_1458",59.7782351164,"icelandic","bte03"
68,8,"tt","width","n","cvcc","i","coronal","stop","cc","vídd","vitt","no",0,22,22,7,"space",3.8871369362,,,"2016_May_31_1458",59.7782351164,"icelandic","bte03"
69,8,"tt","width","n","cvcc","i","coronal","stop","cc","vídd","vitt","no",0,22,22,7,"space",3.3534560204,,,"2016_May_31_1458",59.7782351164,"icelandic","bte03"
70,41,"n̥","want","v","cvccv","a","coronal","nasal","ccv","vanta","van̥ta","yes",0,23,23,44,"space",5.5864019394,,,"2016_May_31_1458",59.7782351164,"icelandic","bte03"
71,41,"n̥","want","v","cvccv","a","coronal","nasal","ccv","vanta","van̥ta","yes",0,23,23,44,"space",4.9545090199,,,"2016_May_31_1458",59.7782351164,"icelandic","bte03"
72,41,"n̥","want","v","cvccv","a","coronal","nasal","ccv","vanta","van̥ta","yes",0,23,23,44,"space",3.8871750832,,,"2016_May_31_1458",59.7782351164,"icelandic","bte03"
73,55,"p","navel","n","cvccv","a","labial","stop","ccv","nafla","napla","no",0,24,24,53,"space",4.7712180615,,,"2016_May_31_1458",59.7782351164,"icelandic","bte03"
74,55,"p","navel","n","cvccv","a","labial","stop","ccv","nafla","napla","no",0,24,24,53,"space",3.2868762016,,,"2016_May_31_1458",59.7782351164,"icelandic","bte03"
75,55,"p","navel","n","cvccv","a","labial","stop","ccv","nafla","napla","no",0,24,24,53,"space",3.8372051716,,,"2016_May_31_1458",59.7782351164,"icelandic","bte03"
76,51,"l̥","milk","v","ccvvccv","ou","coronal","lateral","ccv","mjólka","mjoul̥ka","yes",0,25,25,49,"space",4.2373831272,,,"2016_May_31_1458",59.7782351164,"icelandic","bte03"
77,51,"l̥","milk","v","ccvvccv","ou","coronal","lateral","ccv","mjólka","mjoul̥ka","yes",0,25,25,49,"space",3.754117012,,,"2016_May_31_1458",59.7782351164,"icelandic","bte03"
78,51,"l̥","milk","v","ccvvccv","ou","coronal","lateral","ccv","mjólka","mjoul̥ka","yes",0,25,25,49,"space",4.3035080433,,,"2016_May_31_1458",59.7782351164,"icelandic","bte03"
79,16,"tt","fast","adv","vcc","o","coronal","stop","cc","odd","ott","no",0,26,26,13,"space",4.2717781067,,,"2016_May_31_1458",59.7782351164,"icelandic","bte03"
80,16,"tt","fast","adv","vcc","o","coronal","stop","cc","odd","ott","no",0,26,26,13,"space",3.070606947,,,"2016_May_31_1458",59.7782351164,"icelandic","bte03"
81,16,"tt","fast","adv","vcc","o","coronal","stop","cc","odd","ott","no",0,26,26,13,"space",3.4870898724,,,"2016_May_31_1458",59.7782351164,"icelandic","bte03"
82,10,"tt","thaw","v","cvccv","i","coronal","stop","ccv","þíddi","θitti","no",0,27,27,32,"space",5.7223360539,,,"2016_May_31_1458",59.7782351164,"icelandic","bte03"
83,10,"tt","thaw","v","cvccv","i","coronal","stop","ccv","þíddi","θitti","no",0,27,27,32,"space",4.4038319588,,,"2016_May_31_1458",59.7782351164,"icelandic","bte03"
84,10,"tt","thaw","v","cvccv","i","coronal","stop","ccv","þíddi","θitti","no",0,27,27,32,"space",3.5212600231,,,"2016_May_31_1458",59.7782351164,"icelandic","bte03"
85,39,"n̥","decoration","n","cvncv","ʏ","coronal","nasal","ccv","punta","pʰʏn̥ta","yes",0,28,28,42,"space",5.721364975,,,"2016_May_31_1458",59.7782351164,"icelandic","bte03"
86,39,"n̥","decoration","n","cvncv","ʏ","coronal","nasal","ccv","punta","pʰʏn̥ta","yes",0,28,28,42,"space",3.2701938152,,,"2016_May_31_1458",59.7782351164,"icelandic","bte03"
87,39,"n̥","decoration","n","cvncv","ʏ","coronal","nasal","ccv","punta","pʰʏn̥ta","yes",0,28,28,42,"space",3.4869558811,,,"2016_May_31_1458",59.7782351164,"icelandic","bte03"
88,50,"r","scream","n","vrcv","o","coronal","rhotic","ccv","orga","orka","no",0,29,29,48,"space",4.3540818691,,,"2016_May_31_1458",59.7782351164,"icelandic","bte03"
89,50,"r","scream","n","vrcv","o","coronal","rhotic","ccv","orga","orka","no",0,29,29,48,"space",3.5055840015,,,"2016_May_31_1458",59.7782351164,"icelandic","bte03"
90,50,"r","scream","n","vrcv","o","coronal","rhotic","ccv","orga","orka","no",0,29,29,48,"space",3.51826787,,,"2016_May_31_1458",59.7782351164,"icelandic","bte03"
91,44,"nn","cheek","n","cvcc","i","coronal","nasal","cc","kinn","kʰɪnn","no",0,30,30,29,"space",3.5703639984,,,"2016_May_31_1458",59.7782351164,"icelandic","bte03"
92,44,"nn","cheek","n","cvcc","i","coronal","nasal","cc","kinn","kʰɪnn","no",0,30,30,29,"space",4.3207528591,,,"2016_May_31_1458",59.7782351164,"icelandic","bte03"
93,44,"nn","cheek","n","cvcc","i","coronal","nasal","cc","kinn","kʰɪnn","no",0,30,30,29,"space",3.6204228401,,,"2016_May_31_1458",59.7782351164,"icelandic","bte03"
94,36,"m","comb","n","cvncv","a","labial","nasal","ccv","kamba","kʰampa","no",0,31,31,39,"space",6.6218819618,,,"2016_May_31_1458",59.7782351164,"icelandic","bte03"
95,36,"m","comb","n","cvncv","a","labial","nasal","ccv","kamba","kʰampa","no",0,31,31,39,"space",4.454403162,,,"2016_May_31_1458",59.7782351164,"icelandic","bte03"
96,36,"m","comb","n","cvncv","a","labial","nasal","ccv","kamba","kʰampa","no",0,31,31,39,"space",3.7864339352,,,"2016_May_31_1458",59.7782351164,"icelandic","bte03"
97,25,"ʰk","key","n","cvccv","a","velar","stop","ccv","takka","tʰaʰka","yes",0,32,32,34,"space",4.7218477726,,,"2016_May_31_1458",59.7782351164,"icelandic","bte03"
98,25,"ʰk","key","n","cvccv","a","velar","stop","ccv","takka","tʰaʰka","yes",0,32,32,34,"space",3.4536600113,,,"2016_May_31_1458",59.7782351164,"icelandic","bte03"
99,25,"ʰk","key","n","cvccv","a","velar","stop","ccv","takka","tʰaʰka","yes",0,32,32,34,"space",4.2041950226,,,"2016_May_31_1458",59.7782351164,"icelandic","bte03"
100,3,"ʰk","dark","agg","cvcc","œ","velar","stop","cc","dökk","tœʰk","yes",0,33,33,2,"space",3.888228178,,,"2016_May_31_1458",59.7782351164,"icelandic","bte03"
101,3,"ʰk","dark","agg","cvcc","œ","velar","stop","cc","dökk","tœʰk","yes",0,33,33,2,"space",3.2043530941,,,"2016_May_31_1458",59.7782351164,"icelandic","bte03"
102,3,"ʰk","dark","agg","cvcc","œ","velar","stop","cc","dökk","tœʰk","yes",0,33,33,2,"space",3.8373529911,,,"2016_May_31_1458",59.7782351164,"icelandic","bte03"
103,58,"ʰp","cable","n","cvccv","a","labial","stop","ccv","kapli","kaʰpli","yes",0,34,34,56,"space",5.5881099701,,,"2016_May_31_1458",59.7782351164,"icelandic","bte03"
104,58,"ʰp","cable","n","cvccv","a","labial","stop","ccv","kapli","kaʰpli","yes",0,34,34,56,"space",4.1707000732,,,"2016_May_31_1458",59.7782351164,"icelandic","bte03"
105,58,"ʰp","cable","n","cvccv","a","labial","stop","ccv","kapli","kaʰpli","yes",0,34,34,56,"space",2.7866139412,,,"2016_May_31_1458",59.7782351164,"icelandic","bte03"
106,56,"ʰp","munch","v","cvccv","a","labial","stop","ccv","japla","jaʰpla","yes",0,35,35,54,"space",4.3542900085,,,"2016_May_31_1458",59.7782351164,"icelandic","bte03"
107,56,"ʰp","munch","v","cvccv","a","labial","stop","ccv","japla","jaʰpla","yes",0,35,35,54,"space",4.1205589771,,,"2016_May_31_1458",59.7782351164,"icelandic","bte03"
108,56,"ʰp","munch","v","cvccv","a","labial","stop","ccv","japla","jaʰpla","yes",0,35,35,54,"space",3.5207910538,,,"2016_May_31_1458",59.7782351164,"icelandic","bte03"
109,9,"ʰt","thaw","v","cvcc","i","coronal","stop","cc","þítt","θiʰt","yes",0,36,36,8,"space",3.7373859882,,,"2016_May_31_1458",59.7782351164,"icelandic","bte03"
110,9,"ʰt","thaw","v","cvcc","i","coronal","stop","cc","þítt","θiʰt","yes",0,36,36,8,"space",3.4207541943,,,"2016_May_31_1458",59.7782351164,"icelandic","bte03"
111,9,"ʰt","thaw","v","cvcc","i","coronal","stop","cc","þítt","θiʰt","yes",0,36,36,8,"space",3.6372549534,,,"2016_May_31_1458",59.7782351164,"icelandic","bte03"
112,45,"l","complex","agg","cvlc","ʏ","coronal","lateral","cc","duld","tʏlt","no",0,37,37,30,"space",4.7708399296,,,"2016_May_31_1458",59.7782351164,"icelandic","bte03"
113,45,"l","complex","agg","cvlc","ʏ","coronal","lateral","cc","duld","tʏlt","no",0,37,37,30,"space",3.1535978317,,,"2016_May_31_1458",59.7782351164,"icelandic","bte03"
114,45,"l","complex","agg","cvlc","ʏ","coronal","lateral","cc","duld","tʏlt","no",0,37,37,30,"space",2.970826149,,,"2016_May_31_1458",59.7782351164,"icelandic","bte03"
115,14,"tt","sharpen","v","vcc","ɪ","coronal","stop","cc","ydd","ɪtt","no",0,38,38,11,"space",2.9701268673,,,"2016_May_31_1458",59.7782351164,"icelandic","bte03"
116,14,"tt","sharpen","v","vcc","ɪ","coronal","stop","cc","ydd","ɪtt","no",0,38,38,11,"space",2.4198260307,,,"2016_May_31_1458",59.7782351164,"icelandic","bte03"
117,14,"tt","sharpen","v","vcc","ɪ","coronal","stop","cc","ydd","ɪtt","no",0,38,38,11,"space",3.9205560684,,,"2016_May_31_1458",59.7782351164,"icelandic","bte03"
118,6,"pp","block of wood","n","cvcc","ʏ","labial","stop","cc","kubb","kʰʏpp","no",0,39,39,5,"space",4.5718779564,,,"2016_May_31_1458",59.7782351164,"icelandic","bte03"
119,6,"pp","block of wood","n","cvcc","ʏ","labial","stop","cc","kubb","kʰʏpp","no",0,39,39,5,"space",2.202942133,,,"2016_May_31_1458",59.7782351164,"icelandic","bte03"
120,6,"pp","block of wood","n","cvcc","ʏ","labial","stop","cc","kubb","kʰʏpp","no",0,39,39,5,"space",4.1707859039,,,"2016_May_31_1458",59.7782351164,"icelandic","bte03"
121,20,"ʰt","put","v","cvcc","e","coronal","stop","cc","sett","seʰt","yes",0,40,40,17,"space",4.320991993,,,"2016_May_31_1458",59.7782351164,"icelandic","bte03"
122,20,"ʰt","put","v","cvcc","e","coronal","stop","cc","sett","seʰt","yes",0,40,40,17,"space",2.5864739418,,,"2016_May_31_1458",59.7782351164,"icelandic","bte03"
123,20,"ʰt","put","v","cvcc","e","coronal","stop","cc","sett","seʰt","yes",0,40,40,17,"space",3.4037809372,,,"2016_May_31_1458",59.7782351164,"icelandic","bte03"
124,17,"s","sweet","adj","cvvcc","ai","coronal","stop","cc","sæts","saiss","no",0,41,41,14,"space",5.4553599358,,,"2016_May_31_1458",59.7782351164,"icelandic","bte03"
125,17,"s","sweet","adj","cvvcc","ai","coronal","stop","cc","sæts","saiss","no",0,41,41,14,"space",3.086950779,,,"2016_May_31_1458",59.7782351164,"icelandic","bte03"
126,17,"s","sweet","adj","cvvcc","ai","coronal","stop","cc","sæts","saiss","no",0,41,41,14,"space",3.6880061626,,,"2016_May_31_1458",59.7782351164,"icelandic","bte03"
127,31,"n̥","decoration","n","cvnc","ʏ","coronal","nasal","cc","punt","pʰʏn̥t","yes",0,42,42,24,"space",4.8876419067,,,"2016_May_31_1458",59.7782351164,"icelandic","bte03"
128,31,"n̥","decoration","n","cvnc","ʏ","coronal","nasal","cc","punt","pʰʏn̥t","yes",0,42,42,24,"space",2.7209482193,,,"2016_May_31_1458",59.7782351164,"icelandic","bte03"
129,31,"n̥","decoration","n","cvnc","ʏ","coronal","nasal","cc","punt","pʰʏn̥t","yes",0,42,42,24,"space",2.9033868313,,,"2016_May_31_1458",59.7782351164,"icelandic","bte03"
130,59,"p","play chess","v","cvccv","e","labial","stop","ccv","tefla","tepla","no",0,43,43,57,"space",5.0210268498,,,"2016_May_31_1458",59.7782351164,"icelandic","bte03"
131,59,"p","play chess","v","cvccv","e","labial","stop","ccv","tefla","tepla","no",0,43,43,57,"space",2.5533149242,,,"2016_May_31_1458",59.7782351164,"icelandic","bte03"
132,59,"p","play chess","v","cvccv","e","labial","stop","ccv","tefla","tepla","no",0,43,43,57,"space",4.3547480106,,,"2016_May_31_1458",59.7782351164,"icelandic","bte03"
133,35,"m̥","moustache","n","cvncv","a","labial","nasal","ccv","kampa","kʰam̥pa","yes",0,44,44,38,"space",7.6734120846,,,"2016_May_31_1458",59.7782351164,"icelandic","bte03"
134,35,"m̥","moustache","n","cvncv","a","labial","nasal","ccv","kampa","kʰam̥pa","yes",0,44,44,38,"space",3.1212980747,,,"2016_May_31_1458",59.7782351164,"icelandic","bte03"
135,35,"m̥","moustache","n","cvncv","a","labial","nasal","ccv","kampa","kʰam̥pa","yes",0,44,44,38,"space",2.9367089272,,,"2016_May_31_1458",59.7782351164,"icelandic","bte03"
136,18,"ʰt","sweet","adj","cvvcc","ai","coronal","stop","cc","sætt","saiʰt","yes",0,45,45,15,"space",5.1378879547,,,"2016_May_31_1458",59.7782351164,"icelandic","bte03"
137,18,"ʰt","sweet","adj","cvvcc","ai","coronal","stop","cc","sætt","saiʰt","yes",0,45,45,15,"space",2.0847909451,,,"2016_May_31_1458",59.7782351164,"icelandic","bte03"
138,18,"ʰt","sweet","adj","cvvcc","ai","coronal","stop","cc","sætt","saiʰt","yes",0,45,45,15,"space",3.2869369984,,,"2016_May_31_1458",59.7782351164,"icelandic","bte03"
139,22,"ʰt","fat","adj","cvvcc","ei","coronal","stop","cc","feitt","feiʰt","yes",0,46,46,19,"space",3.753743887,,,"2016_May_31_1458",59.7782351164,"icelandic","bte03"
140,22,"ʰt","fat","adj","cvvcc","ei","coronal","stop","cc","feitt","feiʰt","yes",0,46,46,19,"space",2.7351181507,,,"2016_May_31_1458",59.7782351164,"icelandic","bte03"
141,22,"ʰt","fat","adj","cvvcc","ei","coronal","stop","cc","feitt","feiʰt","yes",0,46,46,19,"space",2.2696559429,,,"2016_May_31_1458",59.7782351164,"icelandic","bte03"
142,52,"l","foam","v","vvccv","iu","coronal","lateral","ccv","ólga","oulka","no",0,47,47,50,"space",4.1216039658,,,"2016_May_31_1458",59.7782351164,"icelandic","bte03"
143,52,"l","foam","v","vvccv","iu","coronal","lateral","ccv","ólga","oulka","no",0,47,47,50,"space",3.204102993,,,"2016_May_31_1458",59.7782351164,"icelandic","bte03"
144,52,"l","foam","v","vvccv","iu","coronal","lateral","ccv","ólga","oulka","no",0,47,47,50,"space",2.9033930302,,,"2016_May_31_1458",59.7782351164,"icelandic","bte03"
145,26,"kk","barrel","n","cvccv","a","velar","stop","ccv","kagga","kʰakka","no",0,48,48,35,"space",4.787599802,,,"2016_May_31_1458",59.7782351164,"icelandic","bte03"
146,26,"kk","barrel","n","cvccv","a","velar","stop","ccv","kagga","kʰakka","no",0,48,48,35,"space",2.8368420601,,,"2016_May_31_1458",59.7782351164,"icelandic","bte03"
147,26,"kk","barrel","n","cvccv","a","velar","stop","ccv","kagga","kʰakka","no",0,48,48,35,"space",2.0530631542,,,"2016_May_31_1458",59.7782351164,"icelandic","bte03"
148,24,"ʰt","wet","adj","cvvcc","o","coronal","stop","cc","vott","voʰt","yes",0,49,49,21,"space",3.0700891018,,,"2016_May_31_1458",59.7782351164,"icelandic","bte03"
149,24,"ʰt","wet","adj","cvvcc","o","coronal","stop","cc","vott","voʰt","yes",0,49,49,21,"space",4.0873470306,,,"2016_May_31_1458",59.7782351164,"icelandic","bte03"
150,24,"ʰt","wet","adj","cvvcc","o","coronal","stop","cc","vott","voʰt","yes",0,49,49,21,"space",3.5370571613,,,"2016_May_31_1458",59.7782351164,"icelandic","bte03"
151,54,"ʰp","arm","v","cvccv","o","labial","stop","ccv","vopna","voʰpna","yes",0,50,50,52,"space",4.0706670284,,,"2016_May_31_1458",59.7782351164,"icelandic","bte03"
152,54,"ʰp","arm","v","cvccv","o","labial","stop","ccv","vopna","voʰpna","yes",0,50,50,52,"space",3.7373070717,,,"2016_May_31_1458",59.7782351164,"icelandic","bte03"
153,54,"ʰp","arm","v","cvccv","o","labial","stop","ccv","vopna","voʰpna","yes",0,50,50,52,"space",3.1200909615,,,"2016_May_31_1458",59.7782351164,"icelandic","bte03"
154,15,"ʰt","point","n","vvcc","ou","coronal","stop","cc","ótt","ouʰt","yes",0,51,51,12,"space",4.3872599602,,,"2016_May_31_1458",59.7782351164,"icelandic","bte03"
155,15,"ʰt","point","n","vvcc","ou","coronal","stop","cc","ótt","ouʰt","yes",0,51,51,12,"space",1.869631052,,,"2016_May_31_1458",59.7782351164,"icelandic","bte03"
156,15,"ʰt","point","n","vvcc","ou","coronal","stop","cc","ótt","ouʰt","yes",0,51,51,12,"space",3.9203410149,,,"2016_May_31_1458",59.7782351164,"icelandic","bte03"
157,28,"tt","pike","n","cvccv","e","coronal","stop","ccv","gedda","ketta","no",0,52,52,37,"space",4.3539710045,,,"2016_May_31_1458",59.7782351164,"icelandic","bte03"
158,28,"tt","pike","n","cvccv","e","coronal","stop","ccv","gedda","ketta","no",0,52,52,37,"space",4.1544539928,,,"2016_May_31_1458",59.7782351164,"icelandic","bte03"
159,28,"tt","pike","n","cvccv","e","coronal","stop","ccv","gedda","ketta","no",0,52,52,37,"space",3.0201718807,,,"2016_May_31_1458",59.7782351164,"icelandic","bte03"
160,32,"n","pound","n","cvnc","ʏ","coronal","nasal","cc","pund","pʰʏnt","no",0,53,53,25,"space",4.6543211937,,,"2016_May_31_1458",59.7782351164,"icelandic","bte03"
161,32,"n","pound","n","cvnc","ʏ","coronal","nasal","cc","pund","pʰʏnt","no",0,53,53,25,"space",3.9038200378,,,"2016_May_31_1458",59.7782351164,"icelandic","bte03"
162,32,"n","pound","n","cvnc","ʏ","coronal","nasal","cc","pund","pʰʏnt","no",0,53,53,25,"space",2.2362480164,,,"2016_May_31_1458",59.7782351164,"icelandic","bte03"
163,11,"ʰt","feed","v","cvcc","ai","coronal","stop","cc","fætt","faiʰt","yes",0,54,54,9,"space",3.9371957779,,,"2016_May_31_1458",59.7782351164,"icelandic","bte03"
164,11,"ʰt","feed","v","cvcc","ai","coronal","stop","cc","fætt","faiʰt","yes",0,54,54,9,"space",3.0042381287,,,"2016_May_31_1458",59.7782351164,"icelandic","bte03"
165,11,"ʰt","feed","v","cvcc","ai","coronal","stop","cc","fætt","faiʰt","yes",0,54,54,9,"space",3.0534579754,,,"2016_May_31_1458",59.7782351164,"icelandic","bte03"
166,30,"m","comb","n","cvnc","a","labial","nasal","cc","kamb","kʰamp","no",0,55,55,23,"space",5.0878019333,,,"2016_May_31_1458",59.7782351164,"icelandic","bte03"
167,30,"m","comb","n","cvnc","a","labial","nasal","cc","kamb","kʰamp","no",0,55,55,23,"space",2.1014170647,,,"2016_May_31_1458",59.7782351164,"icelandic","bte03"
168,30,"m","comb","n","cvnc","a","labial","nasal","cc","kamb","kʰamp","no",0,55,55,23,"space",2.9365949631,,,"2016_May_31_1458",59.7782351164,"icelandic","bte03"
169,46,"l̥","reticent","agg","cvlc","ʏ","coronal","lateral","cc","dult","tʏl̥t","yes",0,56,56,31,"space",3.9704699516,,,"2016_May_31_1458",59.7782351164,"icelandic","bte03"
170,46,"l̥","reticent","agg","cvlc","ʏ","coronal","lateral","cc","dult","tʏl̥t","yes",0,56,56,31,"space",2.2697520256,,,"2016_May_31_1458",59.7782351164,"icelandic","bte03"
171,46,"l̥","reticent","agg","cvlc","ʏ","coronal","lateral","cc","dult","tʏl̥t","yes",0,56,56,31,"space",3.2376990318,,,"2016_May_31_1458",59.7782351164,"icelandic","bte03"
172,57,"p","part","n","cvccv","a","labial","stop","ccv","kafli","kapli","no",0,57,57,55,"space",4.6707708836,,,"2016_May_31_1458",59.7782351164,"icelandic","bte03"
173,57,"p","part","n","cvccv","a","labial","stop","ccv","kafli","kapli","no",0,57,57,55,"space",2.9367539883,,,"2016_May_31_1458",59.7782351164,"icelandic","bte03"
174,57,"p","part","n","cvccv","a","labial","stop","ccv","kafli","kapli","no",0,57,57,55,"space",4.5708529949,,,"2016_May_31_1458",59.7782351164,"icelandic","bte03"
175,60,"ʰp","tiptoe","v","cvccv","ɪ","labial","stop","ccv","tipla","tɪʰpla","yes",0,58,58,58,"space",3.787815094,,,"2016_May_31_1458",59.7782351164,"icelandic","bte03"
176,60,"ʰp","tiptoe","v","cvccv","ɪ","labial","stop","ccv","tipla","tɪʰpla","yes",0,58,58,58,"space",3.1702520847,,,"2016_May_31_1458",59.7782351164,"icelandic","bte03"
177,60,"ʰp","tiptoe","v","cvccv","ɪ","labial","stop","ccv","tipla","tɪʰpla","yes",0,58,58,58,"space",3.6205558777,,,"2016_May_31_1458",59.7782351164,"icelandic","bte03"
178,33,"m̥","comb","v","cvcc","e","labial","nasal","cc","kembt","kem̥t","yes",0,59,59,26,"space",4.7041141987,,,"2016_May_31_1458",59.7782351164,"icelandic","bte03"
179,33,"m̥","comb","v","cvcc","e","labial","nasal","cc","kembt","kem̥t","yes",0,59,59,26,"space",2.1698668003,,,"2016_May_31_1458",59.7782351164,"icelandic","bte03"
180,33,"m̥","comb","v","cvcc","e","labial","nasal","cc","kembt","kem̥t","yes",0,59,59,26,"space",2.8366699219,,,"2016_May_31_1458",59.7782351164,"icelandic","bte03"
,,,,,,,,,,,,,,,,,,,"space",3.6202909946,"2016_May_31_1458",59.7782351164,"icelandic","bte03"
