"idx","cond_no","cons","eng","pos","syl","vow","place","manner","context","lex","ph","asp","trials.thisRepN","trials.thisTrialN","trials.thisN","trials.thisIndex","key_resp_4.keys","key_resp_4.rt","key_resp_7.keys","key_resp_7.rt","date","frameRate","expName","participant"
1,38,"m","comb","v","cvncv","e","labial","nasal","ccv","kemba","kʰempa","no",0,0,0,41,"space",4.9209661484,,,"2016_May_31_1526",59.9078451593,"icelandic","jj04"
2,38,"m","comb","v","cvncv","e","labial","nasal","ccv","kemba","kʰempa","no",0,0,0,41,"space",3.6880209446,,,"2016_May_31_1526",59.9078451593,"icelandic","jj04"
3,38,"m","comb","v","cvncv","e","labial","nasal","ccv","kemba","kʰempa","no",0,0,0,41,"space",2.6876761913,,,"2016_May_31_1526",59.9078451593,"icelandic","jj04"
4,1,"ʰk","cook","n","cvcc","o","velar","stop","cc","kokk","kʰoʰk","yes",0,1,1,0,"space",3.1367981434,,,"2016_May_31_1526",59.9078451593,"icelandic","jj04"
5,1,"ʰk","cook","n","cvcc","o","velar","stop","cc","kokk","kʰoʰk","yes",0,1,1,0,"space",2.019753933,,,"2016_May_31_1526",59.9078451593,"icelandic","jj04"
6,1,"ʰk","cook","n","cvcc","o","velar","stop","cc","kokk","kʰoʰk","yes",0,1,1,0,"space",1.9680600166,,,"2016_May_31_1526",59.9078451593,"icelandic","jj04"
7,20,"ʰt","put","v","cvcc","e","coronal","stop","cc","sett","seʰt","yes",0,2,2,17,"space",3.7038259506,,,"2016_May_31_1526",59.9078451593,"icelandic","jj04"
8,20,"ʰt","put","v","cvcc","e","coronal","stop","cc","sett","seʰt","yes",0,2,2,17,"space",1.8862090111,,,"2016_May_31_1526",59.9078451593,"icelandic","jj04"
9,20,"ʰt","put","v","cvcc","e","coronal","stop","cc","sett","seʰt","yes",0,2,2,17,"space",1.6694149971,,,"2016_May_31_1526",59.9078451593,"icelandic","jj04"
10,27,"ʰt","fall","v","cvccv","e","coronal","stop","ccv","detta","teʰta","yes",0,3,3,36,"space",2.6864550114,,,"2016_May_31_1526",59.9078451593,"icelandic","jj04"
11,27,"ʰt","fall","v","cvccv","e","coronal","stop","ccv","detta","teʰta","yes",0,3,3,36,"space",1.7703030109,,,"2016_May_31_1526",59.9078451593,"icelandic","jj04"
12,27,"ʰt","fall","v","cvccv","e","coronal","stop","ccv","detta","teʰta","yes",0,3,3,36,"space",1.5860989094,,,"2016_May_31_1526",59.9078451593,"icelandic","jj04"
13,8,"tt","width","n","cvcc","i","coronal","stop","cc","vídd","vitt","no",0,4,4,7,"space",2.1698029041,,,"2016_May_31_1526",59.9078451593,"icelandic","jj04"
14,8,"tt","width","n","cvcc","i","coronal","stop","cc","vídd","vitt","no",0,4,4,7,"space",1.5526380539,,,"2016_May_31_1526",59.9078451593,"icelandic","jj04"
15,8,"tt","width","n","cvcc","i","coronal","stop","cc","vídd","vitt","no",0,4,4,7,"space",1.7028720379,,,"2016_May_31_1526",59.9078451593,"icelandic","jj04"
16,7,"ʰt","far and wide","adv","cvcc","i","coronal","stop","cc","vítt","viʰt","yes",0,5,5,6,"space",1.7861599922,,,"2016_May_31_1526",59.9078451593,"icelandic","jj04"
17,7,"ʰt","far and wide","adv","cvcc","i","coronal","stop","cc","vítt","viʰt","yes",0,5,5,6,"space",2.0346720219,,,"2016_May_31_1526",59.9078451593,"icelandic","jj04"
18,7,"ʰt","far and wide","adv","cvcc","i","coronal","stop","cc","vítt","viʰt","yes",0,5,5,6,"space",2.0035572052,,,"2016_May_31_1526",59.9078451593,"icelandic","jj04"
19,54,"ʰp","arm","v","cvccv","o","labial","stop","ccv","vopna","voʰpna","yes",0,6,6,52,"space",2.1531460285,,,"2016_May_31_1526",59.9078451593,"icelandic","jj04"
20,54,"ʰp","arm","v","cvccv","o","labial","stop","ccv","vopna","voʰpna","yes",0,6,6,52,"space",1.4526510239,,,"2016_May_31_1526",59.9078451593,"icelandic","jj04"
21,54,"ʰp","arm","v","cvccv","o","labial","stop","ccv","vopna","voʰpna","yes",0,6,6,52,"space",1.5511829853,,,"2016_May_31_1526",59.9078451593,"icelandic","jj04"
22,58,"ʰp","cable","n","cvccv","a","labial","stop","ccv","kapli","kaʰpli","yes",0,7,7,56,"space",2.6867210865,,,"2016_May_31_1526",59.9078451593,"icelandic","jj04"
23,58,"ʰp","cable","n","cvccv","a","labial","stop","ccv","kapli","kaʰpli","yes",0,7,7,56,"space",1.6527838707,,,"2016_May_31_1526",59.9078451593,"icelandic","jj04"
24,58,"ʰp","cable","n","cvccv","a","labial","stop","ccv","kapli","kaʰpli","yes",0,7,7,56,"space",1.8695077896,,,"2016_May_31_1526",59.9078451593,"icelandic","jj04"
25,10,"tt","thaw","v","cvccv","i","coronal","stop","ccv","þíddi","θitti","no",0,8,8,32,"space",1.9193348885,,,"2016_May_31_1526",59.9078451593,"icelandic","jj04"
26,10,"tt","thaw","v","cvccv","i","coronal","stop","ccv","þíddi","θitti","no",0,8,8,32,"space",1.7026221752,,,"2016_May_31_1526",59.9078451593,"icelandic","jj04"
27,10,"tt","thaw","v","cvccv","i","coronal","stop","ccv","þíddi","θitti","no",0,8,8,32,"space",1.986207962,,,"2016_May_31_1526",59.9078451593,"icelandic","jj04"
28,25,"ʰk","key","n","cvccv","a","velar","stop","ccv","takka","tʰaʰka","yes",0,9,9,34,"space",3.6205210686,,,"2016_May_31_1526",59.9078451593,"icelandic","jj04"
29,25,"ʰk","key","n","cvccv","a","velar","stop","ccv","takka","tʰaʰka","yes",0,9,9,34,"space",2.1196119785,,,"2016_May_31_1526",59.9078451593,"icelandic","jj04"
30,25,"ʰk","key","n","cvccv","a","velar","stop","ccv","takka","tʰaʰka","yes",0,9,9,34,"space",2.569578886,,,"2016_May_31_1526",59.9078451593,"icelandic","jj04"
31,34,"m","comb","v","cvccv","e","labial","nasal","cc","kembdi","kemti","no",0,10,10,27,"space",1.9863369465,,,"2016_May_31_1526",59.9078451593,"icelandic","jj04"
32,34,"m","comb","v","cvccv","e","labial","nasal","cc","kembdi","kemti","no",0,10,10,27,"space",1.6192309856,,,"2016_May_31_1526",59.9078451593,"icelandic","jj04"
33,34,"m","comb","v","cvccv","e","labial","nasal","cc","kembdi","kemti","no",0,10,10,27,"space",1.9696149826,,,"2016_May_31_1526",59.9078451593,"icelandic","jj04"
34,60,"ʰp","tiptoe","v","cvccv","ɪ","labial","stop","ccv","tipla","tɪʰpla","yes",0,11,11,58,"space",2.3530771732,,,"2016_May_31_1526",59.9078451593,"icelandic","jj04"
35,60,"ʰp","tiptoe","v","cvccv","ɪ","labial","stop","ccv","tipla","tɪʰpla","yes",0,11,11,58,"space",1.6361041069,,,"2016_May_31_1526",59.9078451593,"icelandic","jj04"
36,60,"ʰp","tiptoe","v","cvccv","ɪ","labial","stop","ccv","tipla","tɪʰpla","yes",0,11,11,58,"space",1.6362009049,,,"2016_May_31_1526",59.9078451593,"icelandic","jj04"
37,43,"t","smart","adj","cvcc","i","coronal","stop","cc","fínn","fitn̥","yes",0,12,12,28,"space",2.219753027,,,"2016_May_31_1526",59.9078451593,"icelandic","jj04"
38,43,"t","smart","adj","cvcc","i","coronal","stop","cc","fínn","fitn̥","yes",0,12,12,28,"space",1.7195849419,,,"2016_May_31_1526",59.9078451593,"icelandic","jj04"
39,43,"t","smart","adj","cvcc","i","coronal","stop","cc","fínn","fitn̥","yes",0,12,12,28,"space",1.8194699287,,,"2016_May_31_1526",59.9078451593,"icelandic","jj04"
40,15,"ʰt","point","n","vvcc","ou","coronal","stop","cc","ótt","ouʰt","yes",0,13,13,12,"space",4.1872880459,,,"2016_May_31_1526",59.9078451593,"icelandic","jj04"
41,15,"ʰt","point","n","vvcc","ou","coronal","stop","cc","ótt","ouʰt","yes",0,13,13,12,"space",2.1196200848,,,"2016_May_31_1526",59.9078451593,"icelandic","jj04"
42,15,"ʰt","point","n","vvcc","ou","coronal","stop","cc","ótt","ouʰt","yes",0,13,13,12,"space",1.9534721375,,,"2016_May_31_1526",59.9078451593,"icelandic","jj04"
43,4,"kk","dew","n","cvcc","œ","velar","stop","cc","dögg","tœkk","no",0,14,14,3,"space",2.2196860313,,,"2016_May_31_1526",59.9078451593,"icelandic","jj04"
44,4,"kk","dew","n","cvcc","œ","velar","stop","cc","dögg","tœkk","no",0,14,14,3,"space",1.653719902,,,"2016_May_31_1526",59.9078451593,"icelandic","jj04"
45,4,"kk","dew","n","cvcc","œ","velar","stop","cc","dögg","tœkk","no",0,14,14,3,"space",1.4527308941,,,"2016_May_31_1526",59.9078451593,"icelandic","jj04"
46,14,"tt","sharpen","v","vcc","ɪ","coronal","stop","cc","ydd","ɪtt","no",0,15,15,11,"space",2.0528569222,,,"2016_May_31_1526",59.9078451593,"icelandic","jj04"
47,14,"tt","sharpen","v","vcc","ɪ","coronal","stop","cc","ydd","ɪtt","no",0,15,15,11,"space",1.2359378338,,,"2016_May_31_1526",59.9078451593,"icelandic","jj04"
48,14,"tt","sharpen","v","vcc","ɪ","coronal","stop","cc","ydd","ɪtt","no",0,15,15,11,"space",1.402572155,,,"2016_May_31_1526",59.9078451593,"icelandic","jj04"
49,40,"n","pound","n","cvncv","ʏ","coronal","nasal","ccv","punda","pʰʏnta","no",0,16,16,43,"space",4.5697469711,,,"2016_May_31_1526",59.9078451593,"icelandic","jj04"
50,40,"n","pound","n","cvncv","ʏ","coronal","nasal","ccv","punda","pʰʏnta","no",0,16,16,43,"space",1.3357830048,,,"2016_May_31_1526",59.9078451593,"icelandic","jj04"
51,40,"n","pound","n","cvncv","ʏ","coronal","nasal","ccv","punda","pʰʏnta","no",0,16,16,43,"space",1.1509239674,,,"2016_May_31_1526",59.9078451593,"icelandic","jj04"
52,18,"ʰt","sweet","adj","cvvcc","ai","coronal","stop","cc","sætt","saiʰt","yes",0,17,17,15,"space",3.4202649593,,,"2016_May_31_1526",59.9078451593,"icelandic","jj04"
53,18,"ʰt","sweet","adj","cvvcc","ai","coronal","stop","cc","sætt","saiʰt","yes",0,17,17,15,"space",2.2864429951,,,"2016_May_31_1526",59.9078451593,"icelandic","jj04"
54,18,"ʰt","sweet","adj","cvvcc","ai","coronal","stop","cc","sætt","saiʰt","yes",0,17,17,15,"space",2.5205619335,,,"2016_May_31_1526",59.9078451593,"icelandic","jj04"
55,23,"s","wet","adj","cvvcc","o","coronal","stop","cc","vots","voss","no",0,18,18,20,"space",2.8542170525,,,"2016_May_31_1526",59.9078451593,"icelandic","jj04"
56,23,"s","wet","adj","cvvcc","o","coronal","stop","cc","vots","voss","no",0,18,18,20,"space",1.9870090485,,,"2016_May_31_1526",59.9078451593,"icelandic","jj04"
57,23,"s","wet","adj","cvvcc","o","coronal","stop","cc","vots","voss","no",0,18,18,20,"space",1.7527959347,,,"2016_May_31_1526",59.9078451593,"icelandic","jj04"
58,59,"p","play chess","v","cvccv","e","labial","stop","ccv","tefla","tepla","no",0,19,19,57,"space",2.9198589325,,,"2016_May_31_1526",59.9078451593,"icelandic","jj04"
59,59,"p","play chess","v","cvccv","e","labial","stop","ccv","tefla","tepla","no",0,19,19,57,"space",1.6025459766,,,"2016_May_31_1526",59.9078451593,"icelandic","jj04"
60,59,"p","play chess","v","cvccv","e","labial","stop","ccv","tefla","tepla","no",0,19,19,57,"space",1.4531700611,,,"2016_May_31_1526",59.9078451593,"icelandic","jj04"
61,31,"n̥","decoration","n","cvnc","ʏ","coronal","nasal","cc","punt","pʰʏn̥t","yes",0,20,20,24,"space",2.1363389492,,,"2016_May_31_1526",59.9078451593,"icelandic","jj04"
62,31,"n̥","decoration","n","cvnc","ʏ","coronal","nasal","cc","punt","pʰʏn̥t","yes",0,20,20,24,"space",1.5025579929,,,"2016_May_31_1526",59.9078451593,"icelandic","jj04"
63,31,"n̥","decoration","n","cvnc","ʏ","coronal","nasal","cc","punt","pʰʏn̥t","yes",0,20,20,24,"space",1.202737093,,,"2016_May_31_1526",59.9078451593,"icelandic","jj04"
64,2,"kk","beak","n","cvcc","o","velar","stop","cc","gogg","kokk","no",0,21,21,1,"space",2.585018158,,,"2016_May_31_1526",59.9078451593,"icelandic","jj04"
65,2,"kk","beak","n","cvcc","o","velar","stop","cc","gogg","kokk","no",0,21,21,1,"space",1.3859848976,,,"2016_May_31_1526",59.9078451593,"icelandic","jj04"
66,2,"kk","beak","n","cvcc","o","velar","stop","cc","gogg","kokk","no",0,21,21,1,"space",1.5205180645,,,"2016_May_31_1526",59.9078451593,"icelandic","jj04"
67,53,"p","avenge","v","cvccv","e","labial","stop","ccv","hefna","hepna","no",0,22,22,51,"space",2.3697881699,,,"2016_May_31_1526",59.9078451593,"icelandic","jj04"
68,53,"p","avenge","v","cvccv","e","labial","stop","ccv","hefna","hepna","no",0,22,22,51,"space",0.9188940525,,,"2016_May_31_1526",59.9078451593,"icelandic","jj04"
69,53,"p","avenge","v","cvccv","e","labial","stop","ccv","hefna","hepna","no",0,22,22,51,"space",1.4026589394,,,"2016_May_31_1526",59.9078451593,"icelandic","jj04"
70,28,"tt","pike","n","cvccv","e","coronal","stop","ccv","gedda","ketta","no",0,23,23,37,"space",2.3530759811,,,"2016_May_31_1526",59.9078451593,"icelandic","jj04"
71,28,"tt","pike","n","cvccv","e","coronal","stop","ccv","gedda","ketta","no",0,23,23,37,"space",0.7856509686,,,"2016_May_31_1526",59.9078451593,"icelandic","jj04"
72,28,"tt","pike","n","cvccv","e","coronal","stop","ccv","gedda","ketta","no",0,23,23,37,"space",0.8689990044,,,"2016_May_31_1526",59.9078451593,"icelandic","jj04"
73,39,"n̥","decoration","n","cvncv","ʏ","coronal","nasal","ccv","punta","pʰʏn̥ta","yes",0,24,24,42,"space",2.9545841217,,,"2016_May_31_1526",59.9078451593,"icelandic","jj04"
74,39,"n̥","decoration","n","cvncv","ʏ","coronal","nasal","ccv","punta","pʰʏn̥ta","yes",0,24,24,42,"space",1.0533950329,,,"2016_May_31_1526",59.9078451593,"icelandic","jj04"
75,39,"n̥","decoration","n","cvncv","ʏ","coronal","nasal","ccv","punta","pʰʏn̥ta","yes",0,24,24,42,"space",2.303139925,,,"2016_May_31_1526",59.9078451593,"icelandic","jj04"
76,42,"n","do st carefully","v","cvncv","a","coronal","nasal","ccv","vanda","vanta","no",0,25,25,45,"space",2.2696940899,,,"2016_May_31_1526",59.9078451593,"icelandic","jj04"
77,42,"n","do st carefully","v","cvncv","a","coronal","nasal","ccv","vanda","vanta","no",0,25,25,45,"space",1.5860481262,,,"2016_May_31_1526",59.9078451593,"icelandic","jj04"
78,42,"n","do st carefully","v","cvncv","a","coronal","nasal","ccv","vanda","vanta","no",0,25,25,45,"space",1.1191990376,,,"2016_May_31_1526",59.9078451593,"icelandic","jj04"
79,56,"ʰp","munch","v","cvccv","a","labial","stop","ccv","japla","jaʰpla","yes",0,26,26,54,"space",2.1013939381,,,"2016_May_31_1526",59.9078451593,"icelandic","jj04"
80,56,"ʰp","munch","v","cvccv","a","labial","stop","ccv","japla","jaʰpla","yes",0,26,26,54,"space",1.5187120438,,,"2016_May_31_1526",59.9078451593,"icelandic","jj04"
81,56,"ʰp","munch","v","cvccv","a","labial","stop","ccv","japla","jaʰpla","yes",0,26,26,54,"space",1.6861569881,,,"2016_May_31_1526",59.9078451593,"icelandic","jj04"
82,6,"pp","block of wood","n","cvcc","ʏ","labial","stop","cc","kubb","kʰʏpp","no",0,27,27,5,"space",1.5195140839,,,"2016_May_31_1526",59.9078451593,"icelandic","jj04"
83,6,"pp","block of wood","n","cvcc","ʏ","labial","stop","cc","kubb","kʰʏpp","no",0,27,27,5,"space",1.269026041,,,"2016_May_31_1526",59.9078451593,"icelandic","jj04"
84,6,"pp","block of wood","n","cvcc","ʏ","labial","stop","cc","kubb","kʰʏpp","no",0,27,27,5,"space",1.5702068806,,,"2016_May_31_1526",59.9078451593,"icelandic","jj04"
85,45,"l","complex","agg","cvlc","ʏ","coronal","lateral","cc","duld","tʏlt","no",0,28,28,30,"space",3.1034049988,,,"2016_May_31_1526",59.9078451593,"icelandic","jj04"
86,45,"l","complex","agg","cvlc","ʏ","coronal","lateral","cc","duld","tʏlt","no",0,28,28,30,"space",1.6526341438,,,"2016_May_31_1526",59.9078451593,"icelandic","jj04"
87,45,"l","complex","agg","cvlc","ʏ","coronal","lateral","cc","duld","tʏlt","no",0,28,28,30,"space",1.5525588989,,,"2016_May_31_1526",59.9078451593,"icelandic","jj04"
88,36,"m","comb","n","cvncv","a","labial","nasal","ccv","kamba","kʰampa","no",0,29,29,39,"space",2.5199289322,,,"2016_May_31_1526",59.9078451593,"icelandic","jj04"
89,36,"m","comb","n","cvncv","a","labial","nasal","ccv","kamba","kʰampa","no",0,29,29,39,"space",1.5027220249,,,"2016_May_31_1526",59.9078451593,"icelandic","jj04"
90,36,"m","comb","n","cvncv","a","labial","nasal","ccv","kamba","kʰampa","no",0,29,29,39,"space",1.5677340031,,,"2016_May_31_1526",59.9078451593,"icelandic","jj04"
91,46,"l̥","reticent","agg","cvlc","ʏ","coronal","lateral","cc","dult","tʏl̥t","yes",0,30,30,31,"space",1.9196090698,,,"2016_May_31_1526",59.9078451593,"icelandic","jj04"
92,46,"l̥","reticent","agg","cvlc","ʏ","coronal","lateral","cc","dult","tʏl̥t","yes",0,30,30,31,"space",1.2369189262,,,"2016_May_31_1526",59.9078451593,"icelandic","jj04"
93,46,"l̥","reticent","agg","cvlc","ʏ","coronal","lateral","cc","dult","tʏl̥t","yes",0,30,30,31,"space",1.7370588779,,,"2016_May_31_1526",59.9078451593,"icelandic","jj04"
94,37,"m̥","hero","n","cvncv","e","labial","nasal","ccv","kempa","kʰem̥pa","yes",0,31,31,40,"space",1.6860759258,,,"2016_May_31_1526",59.9078451593,"icelandic","jj04"
95,37,"m̥","hero","n","cvncv","e","labial","nasal","ccv","kempa","kʰem̥pa","yes",0,31,31,40,"space",1.5358729363,,,"2016_May_31_1526",59.9078451593,"icelandic","jj04"
96,37,"m̥","hero","n","cvncv","e","labial","nasal","ccv","kempa","kʰem̥pa","yes",0,31,31,40,"space",1.2693359852,,,"2016_May_31_1526",59.9078451593,"icelandic","jj04"
97,13,"ʰt","push","v","vcc","i","coronal","stop","cc","ýtt","iʰt","yes",0,32,32,10,"space",5.2544372082,,,"2016_May_31_1526",59.9078451593,"icelandic","jj04"
98,13,"ʰt","push","v","vcc","i","coronal","stop","cc","ýtt","iʰt","yes",0,32,32,10,"space",1.4860730171,,,"2016_May_31_1526",59.9078451593,"icelandic","jj04"
99,13,"ʰt","push","v","vcc","i","coronal","stop","cc","ýtt","iʰt","yes",0,32,32,10,"space",1.7027812004,,,"2016_May_31_1526",59.9078451593,"icelandic","jj04"
100,49,"r̥","energy","n","vrcv","o","coronal","rhotic","ccv","orka","or̥ka","yes",0,33,33,47,"space",2.3198418617,,,"2016_May_31_1526",59.9078451593,"icelandic","jj04"
101,49,"r̥","energy","n","vrcv","o","coronal","rhotic","ccv","orka","or̥ka","yes",0,33,33,47,"space",1.7359409332,,,"2016_May_31_1526",59.9078451593,"icelandic","jj04"
102,49,"r̥","energy","n","vrcv","o","coronal","rhotic","ccv","orka","or̥ka","yes",0,33,33,47,"space",1.3694050312,,,"2016_May_31_1526",59.9078451593,"icelandic","jj04"
103,24,"ʰt","wet","adj","cvvcc","o","coronal","stop","cc","vott","voʰt","yes",0,34,34,21,"space",2.1196138859,,,"2016_May_31_1526",59.9078451593,"icelandic","jj04"
104,24,"ʰt","wet","adj","cvvcc","o","coronal","stop","cc","vott","voʰt","yes",0,34,34,21,"space",1.5860390663,,,"2016_May_31_1526",59.9078451593,"icelandic","jj04"
105,24,"ʰt","wet","adj","cvvcc","o","coronal","stop","cc","vott","voʰt","yes",0,34,34,21,"space",1.2358510494,,,"2016_May_31_1526",59.9078451593,"icelandic","jj04"
106,47,"l̥","bark","v","cvlcv","e","coronal","lateral","ccv","gelta","kel̥ta","yes",0,35,35,59,"space",2.5198919773,,,"2016_May_31_1526",59.9078451593,"icelandic","jj04"
107,47,"l̥","bark","v","cvlcv","e","coronal","lateral","ccv","gelta","kel̥ta","yes",0,35,35,59,"space",1.4036750794,,,"2016_May_31_1526",59.9078451593,"icelandic","jj04"
108,47,"l̥","bark","v","cvlcv","e","coronal","lateral","ccv","gelta","kel̥ta","yes",0,35,35,59,"space",1.7528619766,,,"2016_May_31_1526",59.9078451593,"icelandic","jj04"
109,19,"s","sediment","n","cvcc","e","coronal","stop","cc","sets","sess","no",0,36,36,16,"space",20.4102931023,,,"2016_May_31_1526",59.9078451593,"icelandic","jj04"
110,19,"s","sediment","n","cvcc","e","coronal","stop","cc","sets","sess","no",0,36,36,16,"space",1.7866618633,,,"2016_May_31_1526",59.9078451593,"icelandic","jj04"
111,19,"s","sediment","n","cvcc","e","coronal","stop","cc","sets","sess","no",0,36,36,16,"space",1.9012749195,,,"2016_May_31_1526",59.9078451593,"icelandic","jj04"
112,51,"l̥","milk","v","ccvvccv","ou","coronal","lateral","ccv","mjólka","mjoul̥ka","yes",0,37,37,49,"space",1.1024370194,,,"2016_May_31_1526",59.9078451593,"icelandic","jj04"
113,51,"l̥","milk","v","ccvvccv","ou","coronal","lateral","ccv","mjólka","mjoul̥ka","yes",0,37,37,49,"space",0.6023051739,,,"2016_May_31_1526",59.9078451593,"icelandic","jj04"
114,51,"l̥","milk","v","ccvvccv","ou","coronal","lateral","ccv","mjólka","mjoul̥ka","yes",0,37,37,49,"space",0.9191520214,,,"2016_May_31_1526",59.9078451593,"icelandic","jj04"
115,12,"tt","feed","v","cvccv","ai","coronal","stop","ccv","fæddi","faitti","no",0,38,38,33,"space",15.1092638969,,,"2016_May_31_1526",59.9078451593,"icelandic","jj04"
116,12,"tt","feed","v","cvccv","ai","coronal","stop","ccv","fæddi","faitti","no",0,38,38,33,"space",2.3206369877,,,"2016_May_31_1526",59.9078451593,"icelandic","jj04"
117,12,"tt","feed","v","cvccv","ai","coronal","stop","ccv","fæddi","faitti","no",0,38,38,33,"space",2.0696690083,,,"2016_May_31_1526",59.9078451593,"icelandic","jj04"
118,44,"nn","cheek","n","cvcc","i","coronal","nasal","cc","kinn","kʰɪnn","no",0,39,39,29,"space",2.186398983,,,"2016_May_31_1526",59.9078451593,"icelandic","jj04"
119,44,"nn","cheek","n","cvcc","i","coronal","nasal","cc","kinn","kʰɪnn","no",0,39,39,29,"space",1.8527929783,,,"2016_May_31_1526",59.9078451593,"icelandic","jj04"
120,44,"nn","cheek","n","cvcc","i","coronal","nasal","cc","kinn","kʰɪnn","no",0,39,39,29,"space",1.9529030323,,,"2016_May_31_1526",59.9078451593,"icelandic","jj04"
121,55,"p","navel","n","cvccv","a","labial","stop","ccv","nafla","napla","no",0,40,40,53,"space",2.4195561409,,,"2016_May_31_1526",59.9078451593,"icelandic","jj04"
122,55,"p","navel","n","cvccv","a","labial","stop","ccv","nafla","napla","no",0,40,40,53,"space",1.9363620281,,,"2016_May_31_1526",59.9078451593,"icelandic","jj04"
123,55,"p","navel","n","cvccv","a","labial","stop","ccv","nafla","napla","no",0,40,40,53,"space",1.9029638767,,,"2016_May_31_1526",59.9078451593,"icelandic","jj04"
124,11,"ʰt","feed","v","cvcc","ai","coronal","stop","cc","fætt","faiʰt","yes",0,41,41,9,"space",2.1358230114,,,"2016_May_31_1526",59.9078451593,"icelandic","jj04"
125,11,"ʰt","feed","v","cvcc","ai","coronal","stop","cc","fætt","faiʰt","yes",0,41,41,9,"space",2.0362179279,,,"2016_May_31_1526",59.9078451593,"icelandic","jj04"
126,11,"ʰt","feed","v","cvcc","ai","coronal","stop","cc","fætt","faiʰt","yes",0,41,41,9,"space",2.5198998451,,,"2016_May_31_1526",59.9078451593,"icelandic","jj04"
127,29,"m̥","moustache","n","cvnc","a","labial","nasal","cc","kamp","kʰam̥p","yes",0,42,42,22,"space",2.5702731609,,,"2016_May_31_1526",59.9078451593,"icelandic","jj04"
128,29,"m̥","moustache","n","cvnc","a","labial","nasal","cc","kamp","kʰam̥p","yes",0,42,42,22,"space",1.752710104,,,"2016_May_31_1526",59.9078451593,"icelandic","jj04"
129,29,"m̥","moustache","n","cvnc","a","labial","nasal","cc","kamp","kʰam̥p","yes",0,42,42,22,"space",1.7361428738,,,"2016_May_31_1526",59.9078451593,"icelandic","jj04"
130,21,"s","fat","adj","cvvcc","ei","coronal","stop","cc","feits","feiss","no",0,43,43,18,"space",3.3529310226,,,"2016_May_31_1526",59.9078451593,"icelandic","jj04"
131,21,"s","fat","adj","cvvcc","ei","coronal","stop","cc","feits","feiss","no",0,43,43,18,"space",1.819149971,,,"2016_May_31_1526",59.9078451593,"icelandic","jj04"
132,21,"s","fat","adj","cvvcc","ei","coronal","stop","cc","feits","feiss","no",0,43,43,18,"space",1.7193779945,,,"2016_May_31_1526",59.9078451593,"icelandic","jj04"
133,5,"ʰp","chamber pot","n","cvcc","o","labial","stop","cc","kopp","kʰoʰp","yes",0,44,44,4,"space",2.303044796,,,"2016_May_31_1526",59.9078451593,"icelandic","jj04"
134,5,"ʰp","chamber pot","n","cvcc","o","labial","stop","cc","kopp","kʰoʰp","yes",0,44,44,4,"space",1.5693969727,,,"2016_May_31_1526",59.9078451593,"icelandic","jj04"
135,5,"ʰp","chamber pot","n","cvcc","o","labial","stop","cc","kopp","kʰoʰp","yes",0,44,44,4,"space",2.1362760067,,,"2016_May_31_1526",59.9078451593,"icelandic","jj04"
136,17,"s","sweet","adj","cvvcc","ai","coronal","stop","cc","sæts","saiss","no",0,45,45,14,"space",2.8700721264,,,"2016_May_31_1526",59.9078451593,"icelandic","jj04"
137,17,"s","sweet","adj","cvvcc","ai","coronal","stop","cc","sæts","saiss","no",0,45,45,14,"space",2.5041730404,,,"2016_May_31_1526",59.9078451593,"icelandic","jj04"
138,17,"s","sweet","adj","cvvcc","ai","coronal","stop","cc","sæts","saiss","no",0,45,45,14,"space",1.9530248642,,,"2016_May_31_1526",59.9078451593,"icelandic","jj04"
139,52,"l","foam","v","vvccv","iu","coronal","lateral","ccv","ólga","oulka","no",0,46,46,50,"space",1.8529992104,,,"2016_May_31_1526",59.9078451593,"icelandic","jj04"
140,52,"l","foam","v","vvccv","iu","coronal","lateral","ccv","ólga","oulka","no",0,46,46,50,"space",1.7512440682,,,"2016_May_31_1526",59.9078451593,"icelandic","jj04"
141,52,"l","foam","v","vvccv","iu","coronal","lateral","ccv","ólga","oulka","no",0,46,46,50,"space",1.2024831772,,,"2016_May_31_1526",59.9078451593,"icelandic","jj04"
142,35,"m̥","moustache","n","cvncv","a","labial","nasal","ccv","kampa","kʰam̥pa","yes",0,47,47,38,"space",3.3362419605,,,"2016_May_31_1526",59.9078451593,"icelandic","jj04"
143,35,"m̥","moustache","n","cvncv","a","labial","nasal","ccv","kampa","kʰam̥pa","yes",0,47,47,38,"space",1.6363689899,,,"2016_May_31_1526",59.9078451593,"icelandic","jj04"
144,35,"m̥","moustache","n","cvncv","a","labial","nasal","ccv","kampa","kʰam̥pa","yes",0,47,47,38,"space",2.002986908,,,"2016_May_31_1526",59.9078451593,"icelandic","jj04"
145,32,"n","pound","n","cvnc","ʏ","coronal","nasal","cc","pund","pʰʏnt","no",0,48,48,25,"space",1.9864881039,,,"2016_May_31_1526",59.9078451593,"icelandic","jj04"
146,32,"n","pound","n","cvnc","ʏ","coronal","nasal","cc","pund","pʰʏnt","no",0,48,48,25,"space",1.6169860363,,,"2016_May_31_1526",59.9078451593,"icelandic","jj04"
147,32,"n","pound","n","cvnc","ʏ","coronal","nasal","cc","pund","pʰʏnt","no",0,48,48,25,"space",1.8346140385,,,"2016_May_31_1526",59.9078451593,"icelandic","jj04"
148,48,"l","castrate","v","cvlcv","e","coronal","lateral","ccv","gelda","kelta","no",0,49,49,46,"space",1.6527709961,,,"2016_May_31_1526",59.9078451593,"icelandic","jj04"
149,48,"l","castrate","v","cvlcv","e","coronal","lateral","ccv","gelda","kelta","no",0,49,49,46,"space",2.036329031,,,"2016_May_31_1526",59.9078451593,"icelandic","jj04"
150,48,"l","castrate","v","cvlcv","e","coronal","lateral","ccv","gelda","kelta","no",0,49,49,46,"space",1.6861968041,,,"2016_May_31_1526",59.9078451593,"icelandic","jj04"
151,30,"m","comb","n","cvnc","a","labial","nasal","cc","kamb","kʰamp","no",0,50,50,23,"space",3.0042028427,,,"2016_May_31_1526",59.9078451593,"icelandic","jj04"
152,30,"m","comb","n","cvnc","a","labial","nasal","cc","kamb","kʰamp","no",0,50,50,23,"space",1.5369210243,,,"2016_May_31_1526",59.9078451593,"icelandic","jj04"
153,30,"m","comb","n","cvnc","a","labial","nasal","cc","kamb","kʰamp","no",0,50,50,23,"space",1.5364928246,,,"2016_May_31_1526",59.9078451593,"icelandic","jj04"
154,50,"r","scream","n","vrcv","o","coronal","rhotic","ccv","orga","orka","no",0,51,51,48,"space",2.3530788422,,,"2016_May_31_1526",59.9078451593,"icelandic","jj04"
155,50,"r","scream","n","vrcv","o","coronal","rhotic","ccv","orga","orka","no",0,51,51,48,"space",1.5865609646,,,"2016_May_31_1526",59.9078451593,"icelandic","jj04"
156,50,"r","scream","n","vrcv","o","coronal","rhotic","ccv","orga","orka","no",0,51,51,48,"space",1.8861610889,,,"2016_May_31_1526",59.9078451593,"icelandic","jj04"
157,26,"kk","barrel","n","cvccv","a","velar","stop","ccv","kagga","kʰakka","no",0,52,52,35,"space",2.5199110508,,,"2016_May_31_1526",59.9078451593,"icelandic","jj04"
158,26,"kk","barrel","n","cvccv","a","velar","stop","ccv","kagga","kʰakka","no",0,52,52,35,"space",1.1342940331,,,"2016_May_31_1526",59.9078451593,"icelandic","jj04"
159,26,"kk","barrel","n","cvccv","a","velar","stop","ccv","kagga","kʰakka","no",0,52,52,35,"space",1.6194689274,,,"2016_May_31_1526",59.9078451593,"icelandic","jj04"
160,22,"ʰt","fat","adj","cvvcc","ei","coronal","stop","cc","feitt","feiʰt","yes",0,53,53,19,"space",1.8026669025,,,"2016_May_31_1526",59.9078451593,"icelandic","jj04"
161,22,"ʰt","fat","adj","cvvcc","ei","coronal","stop","cc","feitt","feiʰt","yes",0,53,53,19,"space",1.286662817,,,"2016_May_31_1526",59.9078451593,"icelandic","jj04"
162,22,"ʰt","fat","adj","cvvcc","ei","coronal","stop","cc","feitt","feiʰt","yes",0,53,53,19,"space",1.2356741428,,,"2016_May_31_1526",59.9078451593,"icelandic","jj04"
163,57,"p","part","n","cvccv","a","labial","stop","ccv","kafli","kapli","no",0,54,54,55,"space",3.0380859375,,,"2016_May_31_1526",59.9078451593,"icelandic","jj04"
164,57,"p","part","n","cvccv","a","labial","stop","ccv","kafli","kapli","no",0,54,54,55,"space",1.335973978,,,"2016_May_31_1526",59.9078451593,"icelandic","jj04"
165,57,"p","part","n","cvccv","a","labial","stop","ccv","kafli","kapli","no",0,54,54,55,"space",1.5703001022,,,"2016_May_31_1526",59.9078451593,"icelandic","jj04"
166,3,"ʰk","dark","agg","cvcc","œ","velar","stop","cc","dökk","tœʰk","yes",0,55,55,2,"space",2.4031748772,,,"2016_May_31_1526",59.9078451593,"icelandic","jj04"
167,3,"ʰk","dark","agg","cvcc","œ","velar","stop","cc","dökk","tœʰk","yes",0,55,55,2,"space",1.9194688797,,,"2016_May_31_1526",59.9078451593,"icelandic","jj04"
168,3,"ʰk","dark","agg","cvcc","œ","velar","stop","cc","dökk","tœʰk","yes",0,55,55,2,"space",1.8870310783,,,"2016_May_31_1526",59.9078451593,"icelandic","jj04"
169,33,"m̥","comb","v","cvcc","e","labial","nasal","cc","kembt","kem̥t","yes",0,56,56,26,"space",2.5366210938,,,"2016_May_31_1526",59.9078451593,"icelandic","jj04"
170,33,"m̥","comb","v","cvcc","e","labial","nasal","cc","kembt","kem̥t","yes",0,56,56,26,"space",2.0197379589,,,"2016_May_31_1526",59.9078451593,"icelandic","jj04"
171,33,"m̥","comb","v","cvcc","e","labial","nasal","cc","kembt","kem̥t","yes",0,56,56,26,"space",1.7193927765,,,"2016_May_31_1526",59.9078451593,"icelandic","jj04"
172,41,"n̥","want","v","cvccv","a","coronal","nasal","ccv","vanta","van̥ta","yes",0,57,57,44,"space",2.2206699848,,,"2016_May_31_1526",59.9078451593,"icelandic","jj04"
173,41,"n̥","want","v","cvccv","a","coronal","nasal","ccv","vanta","van̥ta","yes",0,57,57,44,"space",1.9193890095,,,"2016_May_31_1526",59.9078451593,"icelandic","jj04"
174,41,"n̥","want","v","cvccv","a","coronal","nasal","ccv","vanta","van̥ta","yes",0,57,57,44,"space",1.8178989887,,,"2016_May_31_1526",59.9078451593,"icelandic","jj04"
175,9,"ʰt","thaw","v","cvcc","i","coronal","stop","cc","þítt","θiʰt","yes",0,58,58,8,"space",2.6372990608,,,"2016_May_31_1526",59.9078451593,"icelandic","jj04"
176,9,"ʰt","thaw","v","cvcc","i","coronal","stop","cc","þítt","θiʰt","yes",0,58,58,8,"space",1.9029960632,,,"2016_May_31_1526",59.9078451593,"icelandic","jj04"
177,9,"ʰt","thaw","v","cvcc","i","coronal","stop","cc","þítt","θiʰt","yes",0,58,58,8,"space",1.8037979603,,,"2016_May_31_1526",59.9078451593,"icelandic","jj04"
178,16,"tt","fast","adv","vcc","o","coronal","stop","cc","odd","ott","no",0,59,59,13,"space",1.9362308979,,,"2016_May_31_1526",59.9078451593,"icelandic","jj04"
179,16,"tt","fast","adv","vcc","o","coronal","stop","cc","odd","ott","no",0,59,59,13,"space",1.9696400166,,,"2016_May_31_1526",59.9078451593,"icelandic","jj04"
180,16,"tt","fast","adv","vcc","o","coronal","stop","cc","odd","ott","no",0,59,59,13,"space",2.0529670715,,,"2016_May_31_1526",59.9078451593,"icelandic","jj04"
,,,,,,,,,,,,,,,,,,,"space",89.8291110992,"2016_May_31_1526",59.9078451593,"icelandic","jj04"
