cond_no,cons,eng,pos,syl,vow,place,manner,context,lex,ph,asp,trials.thisRepN,trials.thisTrialN,trials.thisN,trials.thisIndex,key_resp_4.keys,key_resp_4.rt,key_resp_7.keys,key_resp_7.rt,date,frameRate,expName,participant,
25,ʰk,key,n,cvccv,a,velar,stop,ccv,takka,tʰaʰka,yes,0,0,0,32,space,10.6408178806,,,2016_Jun_21_1140,None,icelandic,jr06,
25,ʰk,key,n,cvccv,a,velar,stop,ccv,takka,tʰaʰka,yes,0,0,0,32,space,5.0878610611,,,2016_Jun_21_1140,None,icelandic,jr06,
25,ʰk,key,n,cvccv,a,velar,stop,ccv,takka,tʰaʰka,yes,0,0,0,32,space,3.87158489227,,,2016_Jun_21_1140,None,icelandic,jr06,
32,n,pound,n,cvnc,ʏ,coronal,nasal,cc,pund,pʰʏnt,no,0,1,1,23,space,3.57044410706,,,2016_Jun_21_1140,None,icelandic,jr06,
32,n,pound,n,cvnc,ʏ,coronal,nasal,cc,pund,pʰʏnt,no,0,1,1,23,space,2.53500103951,,,2016_Jun_21_1140,None,icelandic,jr06,
32,n,pound,n,cvnc,ʏ,coronal,nasal,cc,pund,pʰʏnt,no,0,1,1,23,space,3.52037191391,,,2016_Jun_21_1140,None,icelandic,jr06,
24,ʰt,wet,adj,cvvcc,o,coronal,stop,cc,vott,voʰt,yes,0,2,2,19,space,5.17121505737,,,2016_Jun_21_1140,None,icelandic,jr06,
24,ʰt,wet,adj,cvvcc,o,coronal,stop,cc,vott,voʰt,yes,0,2,2,19,space,3.85387921333,,,2016_Jun_21_1140,None,icelandic,jr06,
24,ʰt,wet,adj,cvvcc,o,coronal,stop,cc,vott,voʰt,yes,0,2,2,19,space,3.28687286377,,,2016_Jun_21_1140,None,icelandic,jr06,
1,ʰk,cook,n,cvcc,o,velar,stop,cc,kokk,kʰoʰk,yes,0,3,3,0,space,4.10244297981,,,2016_Jun_21_1140,None,icelandic,jr06,
1,ʰk,cook,n,cvcc,o,velar,stop,cc,kokk,kʰoʰk,yes,0,3,3,0,space,2.31995105743,,,2016_Jun_21_1140,None,icelandic,jr06,
1,ʰk,cook,n,cvcc,o,velar,stop,cc,kokk,kʰoʰk,yes,0,3,3,0,space,3.970484972,,,2016_Jun_21_1140,None,icelandic,jr06,
13,ʰt,push,v,vcc,i,coronal,stop,cc,ýtt,iʰt,yes,0,4,4,10,space,3.28804016113,,,2016_Jun_21_1140,None,icelandic,jr06,
13,ʰt,push,v,vcc,i,coronal,stop,cc,ýtt,iʰt,yes,0,4,4,10,space,2.33645701408,,,2016_Jun_21_1140,None,icelandic,jr06,
13,ʰt,push,v,vcc,i,coronal,stop,cc,ýtt,iʰt,yes,0,4,4,10,space,2.26987504959,,,2016_Jun_21_1140,None,icelandic,jr06,
11,ʰt,feed,v,cvcc,ai,coronal,stop,cc,fætt,faiʰt,yes,0,5,5,9,space,3.220236063,,,2016_Jun_21_1140,None,icelandic,jr06,
11,ʰt,feed,v,cvcc,ai,coronal,stop,cc,fætt,faiʰt,yes,0,5,5,9,space,2.80450320244,,,2016_Jun_21_1140,None,icelandic,jr06,
11,ʰt,feed,v,cvcc,ai,coronal,stop,cc,fætt,faiʰt,yes,0,5,5,9,space,2.60317111015,,,2016_Jun_21_1140,None,icelandic,jr06,
43,t,smart,adj,cvcc,i,coronal,stop,cc,fínn,fitn̥,yes,0,6,6,26,space,2.52004408836,,,2016_Jun_21_1140,None,icelandic,jr06,
43,t,smart,adj,cvcc,i,coronal,stop,cc,fínn,fitn̥,yes,0,6,6,26,space,2.16971111298,,,2016_Jun_21_1140,None,icelandic,jr06,
43,t,smart,adj,cvcc,i,coronal,stop,cc,fínn,fitn̥,yes,0,6,6,26,space,2.03624391556,,,2016_Jun_21_1140,None,icelandic,jr06,
33,m̥,comb,v,cvcc,e,labial,nasal,cc,kembt,kem̥t,yes,0,7,7,24,space,3.43773508072,,,2016_Jun_21_1140,None,icelandic,jr06,
33,m̥,comb,v,cvcc,e,labial,nasal,cc,kembt,kem̥t,yes,0,7,7,24,space,2.16974115372,,,2016_Jun_21_1140,None,icelandic,jr06,
33,m̥,comb,v,cvcc,e,labial,nasal,cc,kembt,kem̥t,yes,0,7,7,24,space,1.91947484016,,,2016_Jun_21_1140,None,icelandic,jr06,
20,ʰt,put,v,cvcc,e,coronal,stop,cc,sett,seʰt,yes,0,8,8,15,space,2.65332889557,,,2016_Jun_21_1140,None,icelandic,jr06,
20,ʰt,put,v,cvcc,e,coronal,stop,cc,sett,seʰt,yes,0,8,8,15,space,2.41989898682,,,2016_Jun_21_1140,None,icelandic,jr06,
20,ʰt,put,v,cvcc,e,coronal,stop,cc,sett,seʰt,yes,0,8,8,15,space,2.07031583786,,,2016_Jun_21_1140,None,icelandic,jr06,
58,ʰp,cable,n,cvccv,a,labial,stop,ccv,kapli,kaʰplɪ,yes,0,9,9,54,space,4.63762998581,,,2016_Jun_21_1140,None,icelandic,jr06,
58,ʰp,cable,n,cvccv,a,labial,stop,ccv,kapli,kaʰplɪ,yes,0,9,9,54,space,2.11956310272,,,2016_Jun_21_1140,None,icelandic,jr06,
58,ʰp,cable,n,cvccv,a,labial,stop,ccv,kapli,kaʰplɪ,yes,0,9,9,54,space,1.8207051754,,,2016_Jun_21_1140,None,icelandic,jr06,
31,n̥,decoration,n,cvnc,ʏ,coronal,nasal,cc,punt,pʰʏn̥t,yes,0,10,10,22,space,3.42043209076,,,2016_Jun_21_1140,None,icelandic,jr06,
31,n̥,decoration,n,cvnc,ʏ,coronal,nasal,cc,punt,pʰʏn̥t,yes,0,10,10,22,space,1.65287780762,,,2016_Jun_21_1140,None,icelandic,jr06,
31,n̥,decoration,n,cvnc,ʏ,coronal,nasal,cc,punt,pʰʏn̥t,yes,0,10,10,22,space,1.63622498512,,,2016_Jun_21_1140,None,icelandic,jr06,
21,s,fat,adj,cvvcc,ei,coronal,stop,cc,feits,feiss,no,0,11,11,16,space,4.95288300514,,,2016_Jun_21_1140,None,icelandic,jr06,
21,s,fat,adj,cvvcc,ei,coronal,stop,cc,feits,feiss,no,0,11,11,16,space,3.23742008209,,,2016_Jun_21_1140,None,icelandic,jr06,
21,s,fat,adj,cvvcc,ei,coronal,stop,cc,feits,feiss,no,0,11,11,16,space,3.15354585648,,,2016_Jun_21_1140,None,icelandic,jr06,
55,p,navel,n,cvccv,a,labial,stop,ccv,nafla,napla,no,0,12,12,51,space,2.90344285965,,,2016_Jun_21_1140,None,icelandic,jr06,
55,p,navel,n,cvccv,a,labial,stop,ccv,nafla,napla,no,0,12,12,51,space,2.21988606453,,,2016_Jun_21_1140,None,icelandic,jr06,
55,p,navel,n,cvccv,a,labial,stop,ccv,nafla,napla,no,0,12,12,51,space,1.55274915695,,,2016_Jun_21_1140,None,icelandic,jr06,
47,l̥,bark,v,cvlcv,e,coronal,lateral,ccv,gelta,kel̥ta,yes,0,13,13,57,space,3.47045302391,,,2016_Jun_21_1140,None,icelandic,jr06,
47,l̥,bark,v,cvlcv,e,coronal,lateral,ccv,gelta,kel̥ta,yes,0,13,13,57,space,2.23650193214,,,2016_Jun_21_1140,None,icelandic,jr06,
47,l̥,bark,v,cvlcv,e,coronal,lateral,ccv,gelta,kel̥ta,yes,0,13,13,57,space,2.5865240097,,,2016_Jun_21_1140,None,icelandic,jr06,
34,m,comb,v,cvccv,e,labial,nasal,cc,kembdi,kemtɪ,no,0,14,14,25,space,3.62037992477,,,2016_Jun_21_1140,None,icelandic,jr06,
34,m,comb,v,cvccv,e,labial,nasal,cc,kembdi,kemtɪ,no,0,14,14,25,space,1.9028878212,,,2016_Jun_21_1140,None,icelandic,jr06,
34,m,comb,v,cvccv,e,labial,nasal,cc,kembdi,kemtɪ,no,0,14,14,25,space,1.88620400429,,,2016_Jun_21_1140,None,icelandic,jr06,
50,r,scream,n,vrcv,o,coronal,rhotic,ccv,orga,orka,no,0,15,15,46,space,63.0831360817,,,2016_Jun_21_1140,None,icelandic,jr06,
50,r,scream,n,vrcv,o,coronal,rhotic,ccv,orga,orka,no,0,15,15,46,space,2.08660197258,,,2016_Jun_21_1140,None,icelandic,jr06,
50,r,scream,n,vrcv,o,coronal,rhotic,ccv,orga,orka,no,0,15,15,46,space,1.93686890602,,,2016_Jun_21_1140,None,icelandic,jr06,
6,pp,block of wood,n,cvcc,ʏ,labial,stop,cc,kubb,kʰʏpp,no,0,16,16,5,space,3.50446891785,,,2016_Jun_21_1140,None,icelandic,jr06,
6,pp,block of wood,n,cvcc,ʏ,labial,stop,cc,kubb,kʰʏpp,no,0,16,16,5,space,1.46942901611,,,2016_Jun_21_1140,None,icelandic,jr06,
6,pp,block of wood,n,cvcc,ʏ,labial,stop,cc,kubb,kʰʏpp,no,0,16,16,5,space,2.05307006836,,,2016_Jun_21_1140,None,icelandic,jr06,
16,tt,fast,adv,vcc,o,coronal,stop,cc,odd,ott,no,0,17,17,13,space,2.43657183647,,,2016_Jun_21_1140,None,icelandic,jr06,
16,tt,fast,adv,vcc,o,coronal,stop,cc,odd,ott,no,0,17,17,13,space,1.90132308006,,,2016_Jun_21_1140,None,icelandic,jr06,
16,tt,fast,adv,vcc,o,coronal,stop,cc,odd,ott,no,0,17,17,13,space,2.01952910423,,,2016_Jun_21_1140,None,icelandic,jr06,
48,l,castrate,v,cvlcv,e,coronal,lateral,ccv,gelda,kelta,no,0,18,18,44,space,3.58715796471,,,2016_Jun_21_1140,None,icelandic,jr06,
48,l,castrate,v,cvlcv,e,coronal,lateral,ccv,gelda,kelta,no,0,18,18,44,space,2.06961297989,,,2016_Jun_21_1140,None,icelandic,jr06,
48,l,castrate,v,cvlcv,e,coronal,lateral,ccv,gelda,kelta,no,0,18,18,44,space,2.13650894165,,,2016_Jun_21_1140,None,icelandic,jr06,
12,tt,feed,v,cvccv,ai,coronal,stop,ccv,fæddi,faittɪ,no,0,19,19,31,space,4.00410413742,,,2016_Jun_21_1140,None,icelandic,jr06,
12,tt,feed,v,cvccv,ai,coronal,stop,ccv,fæddi,faittɪ,no,0,19,19,31,space,2.18630695343,,,2016_Jun_21_1140,None,icelandic,jr06,
12,tt,feed,v,cvccv,ai,coronal,stop,ccv,fæddi,faittɪ,no,0,19,19,31,space,2.28661203384,,,2016_Jun_21_1140,None,icelandic,jr06,
59,p,play chess,v,cvccv,e,labial,stop,ccv,tefla,tepla,no,0,20,20,55,space,6.08824896812,,,2016_Jun_21_1140,None,icelandic,jr06,
59,p,play chess,v,cvccv,e,labial,stop,ccv,tefla,tepla,no,0,20,20,55,space,2.13640809059,,,2016_Jun_21_1140,None,icelandic,jr06,
59,p,play chess,v,cvccv,e,labial,stop,ccv,tefla,tepla,no,0,20,20,55,space,2.13740110397,,,2016_Jun_21_1140,None,icelandic,jr06,
56,ʰp,munch,v,cvccv,a,labial,stop,ccv,japla,jaʰpla,yes,0,21,21,52,space,4.05476117134,,,2016_Jun_21_1140,None,icelandic,jr06,
56,ʰp,munch,v,cvccv,a,labial,stop,ccv,japla,jaʰpla,yes,0,21,21,52,space,1.93628120422,,,2016_Jun_21_1140,None,icelandic,jr06,
56,ʰp,munch,v,cvccv,a,labial,stop,ccv,japla,jaʰpla,yes,0,21,21,52,space,1.83712887764,,,2016_Jun_21_1140,None,icelandic,jr06,
51,l̥,milk,v,ccvvccv,ou,coronal,lateral,ccv,mjólka,mjoul̥ka,yes,0,22,22,47,space,3.88737297058,,,2016_Jun_21_1140,None,icelandic,jr06,
51,l̥,milk,v,ccvvccv,ou,coronal,lateral,ccv,mjólka,mjoul̥ka,yes,0,22,22,47,space,2.12020301819,,,2016_Jun_21_1140,None,icelandic,jr06,
51,l̥,milk,v,ccvvccv,ou,coronal,lateral,ccv,mjólka,mjoul̥ka,yes,0,22,22,47,space,1.63454699516,,,2016_Jun_21_1140,None,icelandic,jr06,
35,m̥,moustache,n,cvncv,a,labial,nasal,ccv,kampa,kʰam̥pa,yes,0,23,23,36,space,4.25406694412,,,2016_Jun_21_1140,None,icelandic,jr06,
35,m̥,moustache,n,cvncv,a,labial,nasal,ccv,kampa,kʰam̥pa,yes,0,23,23,36,space,1.98639011383,,,2016_Jun_21_1140,None,icelandic,jr06,
35,m̥,moustache,n,cvncv,a,labial,nasal,ccv,kampa,kʰam̥pa,yes,0,23,23,36,space,2.00138092041,,,2016_Jun_21_1140,None,icelandic,jr06,
5,ʰp,chamber pot,n,cvcc,o,labial,stop,cc,kopp,kʰoʰp,yes,0,24,24,4,space,3.05347585678,,,2016_Jun_21_1140,None,icelandic,jr06,
5,ʰp,chamber pot,n,cvcc,o,labial,stop,cc,kopp,kʰoʰp,yes,0,24,24,4,space,2.05368995667,,,2016_Jun_21_1140,None,icelandic,jr06,
5,ʰp,chamber pot,n,cvcc,o,labial,stop,cc,kopp,kʰoʰp,yes,0,24,24,4,space,1.73619294167,,,2016_Jun_21_1140,None,icelandic,jr06,
22,ʰt,fat,adj,cvvcc,ei,coronal,stop,cc,feitt,feiʰt,yes,0,25,25,17,space,3.03681206703,,,2016_Jun_21_1140,None,icelandic,jr06,
22,ʰt,fat,adj,cvvcc,ei,coronal,stop,cc,feitt,feiʰt,yes,0,25,25,17,space,2.06968903542,,,2016_Jun_21_1140,None,icelandic,jr06,
22,ʰt,fat,adj,cvvcc,ei,coronal,stop,cc,feitt,feiʰt,yes,0,25,25,17,space,2.78677010536,,,2016_Jun_21_1140,None,icelandic,jr06,
14,tt,sharpen,v,vcc,ɪ,coronal,stop,cc,ydd,ɪtt,no,0,26,26,11,space,3.25350403786,,,2016_Jun_21_1140,None,icelandic,jr06,
14,tt,sharpen,v,vcc,ɪ,coronal,stop,cc,ydd,ɪtt,no,0,26,26,11,space,1.51938581467,,,2016_Jun_21_1140,None,icelandic,jr06,
14,tt,sharpen,v,vcc,ɪ,coronal,stop,cc,ydd,ɪtt,no,0,26,26,11,space,2.97117996216,,,2016_Jun_21_1140,None,icelandic,jr06,
44,nn,cheek,n,cvcc,i,coronal,nasal,cc,kinn,kʰɪnn,no,0,27,27,27,space,3.73712182045,,,2016_Jun_21_1140,None,icelandic,jr06,
44,nn,cheek,n,cvcc,i,coronal,nasal,cc,kinn,kʰɪnn,no,0,27,27,27,space,2.11811518669,,,2016_Jun_21_1140,None,icelandic,jr06,
44,nn,cheek,n,cvcc,i,coronal,nasal,cc,kinn,kʰɪnn,no,0,27,27,27,space,1.73614692688,,,2016_Jun_21_1140,None,icelandic,jr06,
9,ʰt,thaw,v,cvcc,i,coronal,stop,cc,þítt,θiʰt,yes,0,28,28,8,space,3.45406007767,,,2016_Jun_21_1140,None,icelandic,jr06,
9,ʰt,thaw,v,cvcc,i,coronal,stop,cc,þítt,θiʰt,yes,0,28,28,8,space,1.85193896294,,,2016_Jun_21_1140,None,icelandic,jr06,
9,ʰt,thaw,v,cvcc,i,coronal,stop,cc,þítt,θiʰt,yes,0,28,28,8,space,1.85355091095,,,2016_Jun_21_1140,None,icelandic,jr06,
23,s,wet,adj,cvvcc,o,coronal,stop,cc,vots,voss,no,0,29,29,18,space,4.8545460701,,,2016_Jun_21_1140,None,icelandic,jr06,
23,s,wet,adj,cvvcc,o,coronal,stop,cc,vots,voss,no,0,29,29,18,space,2.07172417641,,,2016_Jun_21_1140,None,icelandic,jr06,
23,s,wet,adj,cvvcc,o,coronal,stop,cc,vots,voss,no,0,29,29,18,space,2.08635210991,,,2016_Jun_21_1140,None,icelandic,jr06,
3,ʰk,dark,agg,cvcc,œ,velar,stop,cc,dökk,tœʰk,yes,0,30,30,2,space,2.70344305038,,,2016_Jun_21_1140,None,icelandic,jr06,
3,ʰk,dark,agg,cvcc,œ,velar,stop,cc,dökk,tœʰk,yes,0,30,30,2,space,2.30351018906,,,2016_Jun_21_1140,None,icelandic,jr06,
3,ʰk,dark,agg,cvcc,œ,velar,stop,cc,dökk,tœʰk,yes,0,30,30,2,space,2.36979293823,,,2016_Jun_21_1140,None,icelandic,jr06,
27,ʰt,fall,v,cvccv,e,coronal,stop,ccv,detta,teʰta,yes,0,31,31,34,space,2.70335006714,,,2016_Jun_21_1140,None,icelandic,jr06,
27,ʰt,fall,v,cvccv,e,coronal,stop,ccv,detta,teʰta,yes,0,31,31,34,space,2.28483295441,,,2016_Jun_21_1140,None,icelandic,jr06,
27,ʰt,fall,v,cvccv,e,coronal,stop,ccv,detta,teʰta,yes,0,31,31,34,space,1.78623604774,,,2016_Jun_21_1140,None,icelandic,jr06,
60,ʰp,tiptoe,v,cvccv,ɪ,labial,stop,ccv,tipla,tɪʰpla,yes,0,32,32,56,space,3.82056498528,,,2016_Jun_21_1140,None,icelandic,jr06,
60,ʰp,tiptoe,v,cvccv,ɪ,labial,stop,ccv,tipla,tɪʰpla,yes,0,32,32,56,space,2.01805114746,,,2016_Jun_21_1140,None,icelandic,jr06,
60,ʰp,tiptoe,v,cvccv,ɪ,labial,stop,ccv,tipla,tɪʰpla,yes,0,32,32,56,space,2.3531088829,,,2016_Jun_21_1140,None,icelandic,jr06,
19,s,sediment,n,cvcc,e,coronal,stop,cc,sets,sess,no,0,33,33,14,space,4.0039358139,,,2016_Jun_21_1140,None,icelandic,jr06,
19,s,sediment,n,cvcc,e,coronal,stop,cc,sets,sess,no,0,33,33,14,space,3.03680515289,,,2016_Jun_21_1140,None,icelandic,jr06,
19,s,sediment,n,cvcc,e,coronal,stop,cc,sets,sess,no,0,33,33,14,space,2.13629794121,,,2016_Jun_21_1140,None,icelandic,jr06,
46,l̥,reticent,agg,cvlc,ʏ,coronal,lateral,cc,dult,tʏl̥t,yes,0,34,34,29,space,3.60379600525,,,2016_Jun_21_1140,None,icelandic,jr06,
46,l̥,reticent,agg,cvlc,ʏ,coronal,lateral,cc,dult,tʏl̥t,yes,0,34,34,29,space,2.31983804703,,,2016_Jun_21_1140,None,icelandic,jr06,
46,l̥,reticent,agg,cvlc,ʏ,coronal,lateral,cc,dult,tʏl̥t,yes,0,34,34,29,space,1.76946902275,,,2016_Jun_21_1140,None,icelandic,jr06,
49,r̥,energy,n,vrcv,o,coronal,rhotic,ccv,orka,or̥ka,yes,0,35,35,45,space,3.2186050415,,,2016_Jun_21_1140,None,icelandic,jr06,
49,r̥,energy,n,vrcv,o,coronal,rhotic,ccv,orka,or̥ka,yes,0,35,35,45,space,1.93630480766,,,2016_Jun_21_1140,None,icelandic,jr06,
49,r̥,energy,n,vrcv,o,coronal,rhotic,ccv,orka,or̥ka,yes,0,35,35,45,space,1.75347900391,,,2016_Jun_21_1140,None,icelandic,jr06,
38,m,comb,v,cvncv,e,labial,nasal,ccv,kemba,kʰempa,no,0,36,36,39,space,3.2534558773,,,2016_Jun_21_1140,None,icelandic,jr06,
38,m,comb,v,cvncv,e,labial,nasal,ccv,kemba,kʰempa,no,0,36,36,39,space,2.35369300842,,,2016_Jun_21_1140,None,icelandic,jr06,
38,m,comb,v,cvncv,e,labial,nasal,ccv,kemba,kʰempa,no,0,36,36,39,space,2.35321807861,,,2016_Jun_21_1140,None,icelandic,jr06,
10,tt,thaw,v,cvccv,i,coronal,stop,ccv,þíddi,θittɪ,no,0,37,37,30,space,3.16855287552,,,2016_Jun_21_1140,None,icelandic,jr06,
10,tt,thaw,v,cvccv,i,coronal,stop,ccv,þíddi,θittɪ,no,0,37,37,30,space,1.91966485977,,,2016_Jun_21_1140,None,icelandic,jr06,
10,tt,thaw,v,cvccv,i,coronal,stop,ccv,þíddi,θittɪ,no,0,37,37,30,space,2.71989321709,,,2016_Jun_21_1140,None,icelandic,jr06,
28,tt,pike,n,cvccv,e,coronal,stop,ccv,gedda,ketta,no,0,38,38,35,space,3.637155056,,,2016_Jun_21_1140,None,icelandic,jr06,
28,tt,pike,n,cvccv,e,coronal,stop,ccv,gedda,ketta,no,0,38,38,35,space,1.80375790596,,,2016_Jun_21_1140,None,icelandic,jr06,
28,tt,pike,n,cvccv,e,coronal,stop,ccv,gedda,ketta,no,0,38,38,35,space,2.43636679649,,,2016_Jun_21_1140,None,icelandic,jr06,
42,n,do st carefully,v,cvncv,a,coronal,nasal,ccv,vanda,vanta,no,0,39,39,43,space,3.43673110008,,,2016_Jun_21_1140,None,icelandic,jr06,
42,n,do st carefully,v,cvncv,a,coronal,nasal,ccv,vanda,vanta,no,0,39,39,43,space,1.78615283966,,,2016_Jun_21_1140,None,icelandic,jr06,
42,n,do st carefully,v,cvncv,a,coronal,nasal,ccv,vanda,vanta,no,0,39,39,43,space,1.58604192734,,,2016_Jun_21_1140,None,icelandic,jr06,
36,m,comb,n,cvncv,a,labial,nasal,ccv,kamba,kʰampa,no,0,40,40,37,space,3.93788290024,,,2016_Jun_21_1140,None,icelandic,jr06,
36,m,comb,n,cvncv,a,labial,nasal,ccv,kamba,kʰampa,no,0,40,40,37,space,2.23483300209,,,2016_Jun_21_1140,None,icelandic,jr06,
36,m,comb,n,cvncv,a,labial,nasal,ccv,kamba,kʰampa,no,0,40,40,37,space,1.93629693985,,,2016_Jun_21_1140,None,icelandic,jr06,
53,p,avenge,v,cvccv,e,labial,stop,ccv,hefna,hepna,no,0,41,41,49,space,3.25358295441,,,2016_Jun_21_1140,None,icelandic,jr06,
53,p,avenge,v,cvccv,e,labial,stop,ccv,hefna,hepna,no,0,41,41,49,space,1.86953210831,,,2016_Jun_21_1140,None,icelandic,jr06,
53,p,avenge,v,cvccv,e,labial,stop,ccv,hefna,hepna,no,0,41,41,49,space,1.90395307541,,,2016_Jun_21_1140,None,icelandic,jr06,
57,p,part,n,cvccv,a,labial,stop,ccv,kafli,kaplɪ,no,0,42,42,53,space,3.5881729126,,,2016_Jun_21_1140,None,icelandic,jr06,
57,p,part,n,cvccv,a,labial,stop,ccv,kafli,kaplɪ,no,0,42,42,53,space,2.58673286438,,,2016_Jun_21_1140,None,icelandic,jr06,
57,p,part,n,cvccv,a,labial,stop,ccv,kafli,kaplɪ,no,0,42,42,53,space,1.80292201042,,,2016_Jun_21_1140,None,icelandic,jr06,
2,kk,beak,n,cvcc,o,velar,stop,cc,gogg,kokk,no,0,43,43,1,space,3.15395283699,,,2016_Jun_21_1140,None,icelandic,jr06,
2,kk,beak,n,cvcc,o,velar,stop,cc,gogg,kokk,no,0,43,43,1,space,1.96972990036,,,2016_Jun_21_1140,None,icelandic,jr06,
2,kk,beak,n,cvcc,o,velar,stop,cc,gogg,kokk,no,0,43,43,1,space,1.83634591103,,,2016_Jun_21_1140,None,icelandic,jr06,
15,ʰt,point,n,vvcc,ou,coronal,stop,cc,ótt,ouʰt,yes,0,44,44,12,space,3.68717694283,,,2016_Jun_21_1140,None,icelandic,jr06,
15,ʰt,point,n,vvcc,ou,coronal,stop,cc,ótt,ouʰt,yes,0,44,44,12,space,2.18633985519,,,2016_Jun_21_1140,None,icelandic,jr06,
15,ʰt,point,n,vvcc,ou,coronal,stop,cc,ótt,ouʰt,yes,0,44,44,12,space,1.81953191757,,,2016_Jun_21_1140,None,icelandic,jr06,
37,m̥,hero,n,cvncv,e,labial,nasal,ccv,kempa,kʰem̥pa,yes,0,45,45,38,space,2.55397295952,,,2016_Jun_21_1140,None,icelandic,jr06,
37,m̥,hero,n,cvncv,e,labial,nasal,ccv,kempa,kʰem̥pa,yes,0,45,45,38,space,1.80174612999,,,2016_Jun_21_1140,None,icelandic,jr06,
37,m̥,hero,n,cvncv,e,labial,nasal,ccv,kempa,kʰem̥pa,yes,0,45,45,38,space,1.68621087074,,,2016_Jun_21_1140,None,icelandic,jr06,
29,m̥,moustache,n,cvnc,a,labial,nasal,cc,kamp,kʰam̥p,yes,0,46,46,20,space,4.23740291595,,,2016_Jun_21_1140,None,icelandic,jr06,
29,m̥,moustache,n,cvnc,a,labial,nasal,cc,kamp,kʰam̥p,yes,0,46,46,20,space,2.50411510468,,,2016_Jun_21_1140,None,icelandic,jr06,
29,m̥,moustache,n,cvnc,a,labial,nasal,cc,kamp,kʰam̥p,yes,0,46,46,20,space,2.38658308983,,,2016_Jun_21_1140,None,icelandic,jr06,
4,kk,dew,n,cvcc,œ,velar,stop,cc,dögg,tœkk,no,0,47,47,3,space,3.05373096466,,,2016_Jun_21_1140,None,icelandic,jr06,
4,kk,dew,n,cvcc,œ,velar,stop,cc,dögg,tœkk,no,0,47,47,3,space,1.93623900414,,,2016_Jun_21_1140,None,icelandic,jr06,
4,kk,dew,n,cvcc,œ,velar,stop,cc,dögg,tœkk,no,0,47,47,3,space,1.76966905594,,,2016_Jun_21_1140,None,icelandic,jr06,
8,tt,width,n,cvcc,i,coronal,stop,cc,vídd,vitt,no,0,48,48,7,space,3.82063508034,,,2016_Jun_21_1140,None,icelandic,jr06,
8,tt,width,n,cvcc,i,coronal,stop,cc,vídd,vitt,no,0,48,48,7,space,2.26968097687,,,2016_Jun_21_1140,None,icelandic,jr06,
8,tt,width,n,cvcc,i,coronal,stop,cc,vídd,vitt,no,0,48,48,7,space,1.80297613144,,,2016_Jun_21_1140,None,icelandic,jr06,
40,n,pound,n,cvncv,ʏ,coronal,nasal,ccv,punda,pʰʏnta,no,0,49,49,41,space,2.63669300079,,,2016_Jun_21_1140,None,icelandic,jr06,
40,n,pound,n,cvncv,ʏ,coronal,nasal,ccv,punda,pʰʏnta,no,0,49,49,41,space,1.8346221447,,,2016_Jun_21_1140,None,icelandic,jr06,
40,n,pound,n,cvncv,ʏ,coronal,nasal,ccv,punda,pʰʏnta,no,0,49,49,41,space,1.90296912193,,,2016_Jun_21_1140,None,icelandic,jr06,
54,ʰp,arm,v,cvccv,o,labial,stop,ccv,vopna,voʰpna,yes,0,50,50,50,space,4.05388903618,,,2016_Jun_21_1140,None,icelandic,jr06,
54,ʰp,arm,v,cvccv,o,labial,stop,ccv,vopna,voʰpna,yes,0,50,50,50,space,2.08628201485,,,2016_Jun_21_1140,None,icelandic,jr06,
54,ʰp,arm,v,cvccv,o,labial,stop,ccv,vopna,voʰpna,yes,0,50,50,50,space,1.90293121338,,,2016_Jun_21_1140,None,icelandic,jr06,
45,l,complex,agg,cvlc,ʏ,coronal,lateral,cc,duld,tʏlt,no,0,51,51,28,space,4.12074995041,,,2016_Jun_21_1140,None,icelandic,jr06,
45,l,complex,agg,cvlc,ʏ,coronal,lateral,cc,duld,tʏlt,no,0,51,51,28,space,2.41988301277,,,2016_Jun_21_1140,None,icelandic,jr06,
45,l,complex,agg,cvlc,ʏ,coronal,lateral,cc,duld,tʏlt,no,0,51,51,28,space,2.08716702461,,,2016_Jun_21_1140,None,icelandic,jr06,
30,m,comb,n,cvnc,a,labial,nasal,cc,kamb,kʰamp,no,0,52,52,21,space,3.45371198654,,,2016_Jun_21_1140,None,icelandic,jr06,
30,m,comb,n,cvnc,a,labial,nasal,cc,kamb,kʰamp,no,0,52,52,21,space,2.28633189201,,,2016_Jun_21_1140,None,icelandic,jr06,
30,m,comb,n,cvnc,a,labial,nasal,cc,kamb,kʰamp,no,0,52,52,21,space,2.48665690422,,,2016_Jun_21_1140,None,icelandic,jr06,
26,kk,barrel,n,cvccv,a,velar,stop,ccv,kagga,kʰakka,no,0,53,53,33,space,6.53857088089,,,2016_Jun_21_1140,None,icelandic,jr06,
26,kk,barrel,n,cvccv,a,velar,stop,ccv,kagga,kʰakka,no,0,53,53,33,space,2.38636088371,,,2016_Jun_21_1140,None,icelandic,jr06,
26,kk,barrel,n,cvccv,a,velar,stop,ccv,kagga,kʰakka,no,0,53,53,33,space,3.03673505783,,,2016_Jun_21_1140,None,icelandic,jr06,
41,n̥,want,v,cvccv,a,coronal,nasal,ccv,vanta,van̥ta,yes,0,54,54,42,space,3.80393099785,,,2016_Jun_21_1140,None,icelandic,jr06,
41,n̥,want,v,cvccv,a,coronal,nasal,ccv,vanta,van̥ta,yes,0,54,54,42,space,2.28645706177,,,2016_Jun_21_1140,None,icelandic,jr06,
41,n̥,want,v,cvccv,a,coronal,nasal,ccv,vanta,van̥ta,yes,0,54,54,42,space,2.08625912666,,,2016_Jun_21_1140,None,icelandic,jr06,
39,n̥,decoration,n,cvncv,ʏ,coronal,nasal,ccv,punta,pʰʏn̥ta,yes,0,55,55,40,space,5.19118189812,,,2016_Jun_21_1140,None,icelandic,jr06,
39,n̥,decoration,n,cvncv,ʏ,coronal,nasal,ccv,punta,pʰʏn̥ta,yes,0,55,55,40,space,1.88622808456,,,2016_Jun_21_1140,None,icelandic,jr06,
39,n̥,decoration,n,cvncv,ʏ,coronal,nasal,ccv,punta,pʰʏn̥ta,yes,0,55,55,40,space,1.81941795349,,,2016_Jun_21_1140,None,icelandic,jr06,
7,ʰt,far and wide,adv,cvcc,i,coronal,stop,cc,vítt,viʰt,yes,0,56,56,6,space,3.68724393845,,,2016_Jun_21_1140,None,icelandic,jr06,
7,ʰt,far and wide,adv,cvcc,i,coronal,stop,cc,vítt,viʰt,yes,0,56,56,6,space,2.18647098541,,,2016_Jun_21_1140,None,icelandic,jr06,
7,ʰt,far and wide,adv,cvcc,i,coronal,stop,cc,vítt,viʰt,yes,0,56,56,6,space,1.86959409714,,,2016_Jun_21_1140,None,icelandic,jr06,
52,l,foam,v,vvccv,iu,coronal,lateral,ccv,ólga,oulka,no,0,57,57,48,space,3.6705019474,,,2016_Jun_21_1140,None,icelandic,jr06,
52,l,foam,v,vvccv,iu,coronal,lateral,ccv,ólga,oulka,no,0,57,57,48,space,2.20366692543,,,2016_Jun_21_1140,None,icelandic,jr06,
52,l,foam,v,vvccv,iu,coronal,lateral,ccv,ólga,oulka,no,0,57,57,48,space,1.98636412621,,,2016_Jun_21_1140,None,icelandic,jr06,
,,,,,,,,,,,,,,,,,,space,26.7327711582,2016_Jun_21_1140,None,icelandic,jr06,
