"idx","cond_no","cons","eng","pos","syl","vow","place","manner","context","lex","ph","asp","trials.thisRepN","trials.thisTrialN","trials.thisN","trials.thisIndex","key_resp_4.keys","key_resp_4.rt","key_resp_7.keys","key_resp_7.rt","date","frameRate","expName","participant"
1,14,"tt","sharpen","v","vcc","ɪ","coronal","stop","cc","ydd","ɪtt","no",0,0,0,11,"space",2.8046011925,,,"2016_Jun_13_1116",59.9836680057,"icelandic","shg05"
2,14,"tt","sharpen","v","vcc","ɪ","coronal","stop","cc","ydd","ɪtt","no",0,0,0,11,"space",2.4199411869,,,"2016_Jun_13_1116",59.9836680057,"icelandic","shg05"
3,14,"tt","sharpen","v","vcc","ɪ","coronal","stop","cc","ydd","ɪtt","no",0,0,0,11,"space",2.6541950703,,,"2016_Jun_13_1116",59.9836680057,"icelandic","shg05"
4,45,"l","complex","agg","cvlc","ʏ","coronal","lateral","cc","duld","tʏlt","no",0,1,1,28,"space",2.5198521614,,,"2016_Jun_13_1116",59.9836680057,"icelandic","shg05"
5,45,"l","complex","agg","cvlc","ʏ","coronal","lateral","cc","duld","tʏlt","no",0,1,1,28,"space",2.7540581226,,,"2016_Jun_13_1116",59.9836680057,"icelandic","shg05"
6,45,"l","complex","agg","cvlc","ʏ","coronal","lateral","cc","duld","tʏlt","no",0,1,1,28,"space",2.3369951248,,,"2016_Jun_13_1116",59.9836680057,"icelandic","shg05"
7,42,"n","do st carefully","v","cvncv","a","coronal","nasal","ccv","vanda","vanta","no",0,2,2,43,"space",2.7044010162,,,"2016_Jun_13_1116",59.9836680057,"icelandic","shg05"
8,42,"n","do st carefully","v","cvncv","a","coronal","nasal","ccv","vanda","vanta","no",0,2,2,43,"space",2.6532609463,,,"2016_Jun_13_1116",59.9836680057,"icelandic","shg05"
9,42,"n","do st carefully","v","cvncv","a","coronal","nasal","ccv","vanda","vanta","no",0,2,2,43,"space",2.5531909466,,,"2016_Jun_13_1116",59.9836680057,"icelandic","shg05"
10,15,"ʰt","point","n","vvcc","ou","coronal","stop","cc","ótt","ouʰt","yes",0,3,3,12,"space",2.6700229645,,,"2016_Jun_13_1116",59.9836680057,"icelandic","shg05"
11,15,"ʰt","point","n","vvcc","ou","coronal","stop","cc","ótt","ouʰt","yes",0,3,3,12,"space",2.2874670029,,,"2016_Jun_13_1116",59.9836680057,"icelandic","shg05"
12,15,"ʰt","point","n","vvcc","ou","coronal","stop","cc","ótt","ouʰt","yes",0,3,3,12,"space",1.9699919224,,,"2016_Jun_13_1116",59.9836680057,"icelandic","shg05"
13,31,"n̥","decoration","n","cvnc","ʏ","coronal","nasal","cc","punt","pʰʏn̥t","yes",0,4,4,22,"space",2.5366950035,,,"2016_Jun_13_1116",59.9836680057,"icelandic","shg05"
14,31,"n̥","decoration","n","cvnc","ʏ","coronal","nasal","cc","punt","pʰʏn̥t","yes",0,4,4,22,"space",1.9361069202,,,"2016_Jun_13_1116",59.9836680057,"icelandic","shg05"
15,31,"n̥","decoration","n","cvnc","ʏ","coronal","nasal","cc","punt","pʰʏn̥t","yes",0,4,4,22,"space",2.169739008,,,"2016_Jun_13_1116",59.9836680057,"icelandic","shg05"
16,51,"l̥","milk","v","ccvvccv","ou","coronal","lateral","ccv","mjólka","mjoul̥ka","yes",0,5,5,47,"space",2.6199030876,,,"2016_Jun_13_1116",59.9836680057,"icelandic","shg05"
17,51,"l̥","milk","v","ccvvccv","ou","coronal","lateral","ccv","mjólka","mjoul̥ka","yes",0,5,5,47,"space",2.3364610672,,,"2016_Jun_13_1116",59.9836680057,"icelandic","shg05"
18,51,"l̥","milk","v","ccvvccv","ou","coronal","lateral","ccv","mjólka","mjoul̥ka","yes",0,5,5,47,"space",2.0514421463,,,"2016_Jun_13_1116",59.9836680057,"icelandic","shg05"
19,21,"s","fat","adj","cvvcc","ei","coronal","stop","cc","feits","feiss","no",0,6,6,16,"space",2.4529900551,,,"2016_Jun_13_1116",59.9836680057,"icelandic","shg05"
20,21,"s","fat","adj","cvvcc","ei","coronal","stop","cc","feits","feiss","no",0,6,6,16,"space",2.3197431564,,,"2016_Jun_13_1116",59.9836680057,"icelandic","shg05"
21,21,"s","fat","adj","cvvcc","ei","coronal","stop","cc","feits","feiss","no",0,6,6,16,"space",2.2530181408,,,"2016_Jun_13_1116",59.9836680057,"icelandic","shg05"
22,39,"n̥","decoration","n","cvncv","ʏ","coronal","nasal","ccv","punta","pʰʏn̥ta","yes",0,7,7,40,"space",2.3865058422,,,"2016_Jun_13_1116",59.9836680057,"icelandic","shg05"
23,39,"n̥","decoration","n","cvncv","ʏ","coronal","nasal","ccv","punta","pʰʏn̥ta","yes",0,7,7,40,"space",2.3363010883,,,"2016_Jun_13_1116",59.9836680057,"icelandic","shg05"
24,39,"n̥","decoration","n","cvncv","ʏ","coronal","nasal","ccv","punta","pʰʏn̥ta","yes",0,7,7,40,"space",2.0363109112,,,"2016_Jun_13_1116",59.9836680057,"icelandic","shg05"
25,36,"m","comb","n","cvncv","a","labial","nasal","ccv","kamba","kʰampa","no",0,8,8,37,"space",2.5533740521,,,"2016_Jun_13_1116",59.9836680057,"icelandic","shg05"
26,36,"m","comb","n","cvncv","a","labial","nasal","ccv","kamba","kʰampa","no",0,8,8,37,"space",2.2531049252,,,"2016_Jun_13_1116",59.9836680057,"icelandic","shg05"
27,36,"m","comb","n","cvncv","a","labial","nasal","ccv","kamba","kʰampa","no",0,8,8,37,"space",2.4197978973,,,"2016_Jun_13_1116",59.9836680057,"icelandic","shg05"
28,46,"l̥","reticent","agg","cvlc","ʏ","coronal","lateral","cc","dult","tʏl̥t","yes",0,9,9,29,"space",2.7702190876,,,"2016_Jun_13_1116",59.9836680057,"icelandic","shg05"
29,46,"l̥","reticent","agg","cvlc","ʏ","coronal","lateral","cc","dult","tʏl̥t","yes",0,9,9,29,"space",2.1692099571,,,"2016_Jun_13_1116",59.9836680057,"icelandic","shg05"
30,46,"l̥","reticent","agg","cvlc","ʏ","coronal","lateral","cc","dult","tʏl̥t","yes",0,9,9,29,"space",2.0692517757,,,"2016_Jun_13_1116",59.9836680057,"icelandic","shg05"
31,37,"m̥","hero","n","cvncv","e","labial","nasal","ccv","kempa","kʰem̥pa","yes",0,10,10,38,"space",2.7200300694,,,"2016_Jun_13_1116",59.9836680057,"icelandic","shg05"
32,37,"m̥","hero","n","cvncv","e","labial","nasal","ccv","kempa","kʰem̥pa","yes",0,10,10,38,"space",2.1532399654,,,"2016_Jun_13_1116",59.9836680057,"icelandic","shg05"
33,37,"m̥","hero","n","cvncv","e","labial","nasal","ccv","kempa","kʰem̥pa","yes",0,10,10,38,"space",2.3371548653,,,"2016_Jun_13_1116",59.9836680057,"icelandic","shg05"
34,55,"p","navel","n","cvccv","a","labial","stop","ccv","nafla","napla","no",0,11,11,51,"space",2.1697480679,,,"2016_Jun_13_1116",59.9836680057,"icelandic","shg05"
35,55,"p","navel","n","cvccv","a","labial","stop","ccv","nafla","napla","no",0,11,11,51,"space",2.1702520847,,,"2016_Jun_13_1116",59.9836680057,"icelandic","shg05"
36,55,"p","navel","n","cvccv","a","labial","stop","ccv","nafla","napla","no",0,11,11,51,"space",2.1375060082,,,"2016_Jun_13_1116",59.9836680057,"icelandic","shg05"
37,59,"p","play chess","v","cvccv","e","labial","stop","ccv","tefla","tepla","no",0,12,12,55,"space",2.3532030582,,,"2016_Jun_13_1116",59.9836680057,"icelandic","shg05"
38,59,"p","play chess","v","cvccv","e","labial","stop","ccv","tefla","tepla","no",0,12,12,55,"space",1.8861670494,,,"2016_Jun_13_1116",59.9836680057,"icelandic","shg05"
39,59,"p","play chess","v","cvccv","e","labial","stop","ccv","tefla","tepla","no",0,12,12,55,"space",2.2697899342,,,"2016_Jun_13_1116",59.9836680057,"icelandic","shg05"
40,29,"m̥","moustache","n","cvnc","a","labial","nasal","cc","kamp","kʰam̥p","yes",0,13,13,20,"space",2.353094101,,,"2016_Jun_13_1116",59.9836680057,"icelandic","shg05"
41,29,"m̥","moustache","n","cvnc","a","labial","nasal","cc","kamp","kʰam̥p","yes",0,13,13,20,"space",2.2348639965,,,"2016_Jun_13_1116",59.9836680057,"icelandic","shg05"
42,29,"m̥","moustache","n","cvnc","a","labial","nasal","cc","kamp","kʰam̥p","yes",0,13,13,20,"space",2.4864637852,,,"2016_Jun_13_1116",59.9836680057,"icelandic","shg05"
43,6,"pp","block of wood","n","cvcc","ʏ","labial","stop","cc","kubb","kʰʏpp","no",0,14,14,5,"space",2.3197181225,,,"2016_Jun_13_1116",59.9836680057,"icelandic","shg05"
44,6,"pp","block of wood","n","cvcc","ʏ","labial","stop","cc","kubb","kʰʏpp","no",0,14,14,5,"space",2.8699448109,,,"2016_Jun_13_1116",59.9836680057,"icelandic","shg05"
45,6,"pp","block of wood","n","cvcc","ʏ","labial","stop","cc","kubb","kʰʏpp","no",0,14,14,5,"space",2.0535759926,,,"2016_Jun_13_1116",59.9836680057,"icelandic","shg05"
46,28,"tt","pike","n","cvccv","e","coronal","stop","ccv","gedda","ketta","no",0,15,15,35,"space",2.2528100014,,,"2016_Jun_13_1116",59.9836680057,"icelandic","shg05"
47,28,"tt","pike","n","cvccv","e","coronal","stop","ccv","gedda","ketta","no",0,15,15,35,"space",2.2362561226,,,"2016_Jun_13_1116",59.9836680057,"icelandic","shg05"
48,28,"tt","pike","n","cvccv","e","coronal","stop","ccv","gedda","ketta","no",0,15,15,35,"space",2.4538919926,,,"2016_Jun_13_1116",59.9836680057,"icelandic","shg05"
49,43,"t","smart","adj","cvcc","i","coronal","stop","cc","fínn","fitn̥","yes",0,16,16,26,"space",2.5185329914,,,"2016_Jun_13_1116",59.9836680057,"icelandic","shg05"
50,43,"t","smart","adj","cvcc","i","coronal","stop","cc","fínn","fitn̥","yes",0,16,16,26,"space",2.4031529427,,,"2016_Jun_13_1116",59.9836680057,"icelandic","shg05"
51,43,"t","smart","adj","cvcc","i","coronal","stop","cc","fínn","fitn̥","yes",0,16,16,26,"space",2.286534071,,,"2016_Jun_13_1116",59.9836680057,"icelandic","shg05"
52,47,"l̥","bark","v","cvlcv","e","coronal","lateral","ccv","gelta","kel̥ta","yes",0,17,17,57,"space",2.8045458794,,,"2016_Jun_13_1116",59.9836680057,"icelandic","shg05"
53,47,"l̥","bark","v","cvlcv","e","coronal","lateral","ccv","gelta","kel̥ta","yes",0,17,17,57,"space",2.1366178989,,,"2016_Jun_13_1116",59.9836680057,"icelandic","shg05"
54,47,"l̥","bark","v","cvlcv","e","coronal","lateral","ccv","gelta","kel̥ta","yes",0,17,17,57,"space",2.0529458523,,,"2016_Jun_13_1116",59.9836680057,"icelandic","shg05"
55,33,"m̥","comb","v","cvcc","e","labial","nasal","cc","kembt","kem̥t","yes",0,18,18,24,"space",2.97108078,,,"2016_Jun_13_1116",59.9836680057,"icelandic","shg05"
56,33,"m̥","comb","v","cvcc","e","labial","nasal","cc","kembt","kem̥t","yes",0,18,18,24,"space",1.9368958473,,,"2016_Jun_13_1116",59.9836680057,"icelandic","shg05"
57,33,"m̥","comb","v","cvcc","e","labial","nasal","cc","kembt","kem̥t","yes",0,18,18,24,"space",2.003180027,,,"2016_Jun_13_1116",59.9836680057,"icelandic","shg05"
58,20,"ʰt","put","v","cvcc","e","coronal","stop","cc","sett","seʰt","yes",0,19,19,15,"space",2.4031229019,,,"2016_Jun_13_1116",59.9836680057,"icelandic","shg05"
59,20,"ʰt","put","v","cvcc","e","coronal","stop","cc","sett","seʰt","yes",0,19,19,15,"space",2.1530520916,,,"2016_Jun_13_1116",59.9836680057,"icelandic","shg05"
60,20,"ʰt","put","v","cvcc","e","coronal","stop","cc","sett","seʰt","yes",0,19,19,15,"space",2.0372819901,,,"2016_Jun_13_1116",59.9836680057,"icelandic","shg05"
61,22,"ʰt","fat","adj","cvvcc","ei","coronal","stop","cc","feitt","feiʰt","yes",0,20,20,17,"space",2.3029508591,,,"2016_Jun_13_1116",59.9836680057,"icelandic","shg05"
62,22,"ʰt","fat","adj","cvvcc","ei","coronal","stop","cc","feitt","feiʰt","yes",0,20,20,17,"space",1.8695220947,,,"2016_Jun_13_1116",59.9836680057,"icelandic","shg05"
63,22,"ʰt","fat","adj","cvvcc","ei","coronal","stop","cc","feitt","feiʰt","yes",0,20,20,17,"space",2.0872859955,,,"2016_Jun_13_1116",59.9836680057,"icelandic","shg05"
64,54,"ʰp","arm","v","cvccv","o","labial","stop","ccv","vopna","voʰpna","yes",0,21,21,50,"space",2.3367850781,,,"2016_Jun_13_1116",59.9836680057,"icelandic","shg05"
65,54,"ʰp","arm","v","cvccv","o","labial","stop","ccv","vopna","voʰpna","yes",0,21,21,50,"space",2.469933033,,,"2016_Jun_13_1116",59.9836680057,"icelandic","shg05"
66,54,"ʰp","arm","v","cvccv","o","labial","stop","ccv","vopna","voʰpna","yes",0,21,21,50,"space",2.170293808,,,"2016_Jun_13_1116",59.9836680057,"icelandic","shg05"
67,32,"n","pound","n","cvnc","ʏ","coronal","nasal","cc","pund","pʰʏnt","no",0,22,22,23,"space",2.4876070023,,,"2016_Jun_13_1116",59.9836680057,"icelandic","shg05"
68,32,"n","pound","n","cvnc","ʏ","coronal","nasal","cc","pund","pʰʏnt","no",0,22,22,23,"space",2.0197689533,,,"2016_Jun_13_1116",59.9836680057,"icelandic","shg05"
69,32,"n","pound","n","cvnc","ʏ","coronal","nasal","cc","pund","pʰʏnt","no",0,22,22,23,"space",1.8368730545,,,"2016_Jun_13_1116",59.9836680057,"icelandic","shg05"
70,7,"ʰt","far and wide","adv","cvcc","i","coronal","stop","cc","vítt","viʰt","yes",0,23,23,6,"space",2.153234005,,,"2016_Jun_13_1116",59.9836680057,"icelandic","shg05"
71,7,"ʰt","far and wide","adv","cvcc","i","coronal","stop","cc","vítt","viʰt","yes",0,23,23,6,"space",1.8861749172,,,"2016_Jun_13_1116",59.9836680057,"icelandic","shg05"
72,7,"ʰt","far and wide","adv","cvcc","i","coronal","stop","cc","vítt","viʰt","yes",0,23,23,6,"space",2.1696090698,,,"2016_Jun_13_1116",59.9836680057,"icelandic","shg05"
73,57,"p","part","n","cvccv","a","labial","stop","ccv","kafli","kaplɪ","no",0,24,24,53,"space",2.2697329521,,,"2016_Jun_13_1116",59.9836680057,"icelandic","shg05"
74,57,"p","part","n","cvccv","a","labial","stop","ccv","kafli","kaplɪ","no",0,24,24,53,"space",2.1198022366,,,"2016_Jun_13_1116",59.9836680057,"icelandic","shg05"
75,57,"p","part","n","cvccv","a","labial","stop","ccv","kafli","kaplɪ","no",0,24,24,53,"space",2.0862820149,,,"2016_Jun_13_1116",59.9836680057,"icelandic","shg05"
76,13,"ʰt","push","v","vcc","i","coronal","stop","cc","ýtt","iʰt","yes",0,25,25,10,"space",2.33685112,,,"2016_Jun_13_1116",59.9836680057,"icelandic","shg05"
77,13,"ʰt","push","v","vcc","i","coronal","stop","cc","ýtt","iʰt","yes",0,25,25,10,"space",1.8366229534,,,"2016_Jun_13_1116",59.9836680057,"icelandic","shg05"
78,13,"ʰt","push","v","vcc","i","coronal","stop","cc","ýtt","iʰt","yes",0,25,25,10,"space",1.9029297829,,,"2016_Jun_13_1116",59.9836680057,"icelandic","shg05"
79,25,"ʰk","key","n","cvccv","a","velar","stop","ccv","takka","tʰaʰka","yes",0,26,26,32,"space",2.2036919594,,,"2016_Jun_13_1116",59.9836680057,"icelandic","shg05"
80,25,"ʰk","key","n","cvccv","a","velar","stop","ccv","takka","tʰaʰka","yes",0,26,26,32,"space",2.0531880856,,,"2016_Jun_13_1116",59.9836680057,"icelandic","shg05"
81,25,"ʰk","key","n","cvccv","a","velar","stop","ccv","takka","tʰaʰka","yes",0,26,26,32,"space",1.8196399212,,,"2016_Jun_13_1116",59.9836680057,"icelandic","shg05"
82,4,"kk","dew","n","cvcc","œ","velar","stop","cc","dögg","tœkk","no",0,27,27,3,"space",2.0362780094,,,"2016_Jun_13_1116",59.9836680057,"icelandic","shg05"
83,4,"kk","dew","n","cvcc","œ","velar","stop","cc","dögg","tœkk","no",0,27,27,3,"space",2.1870281696,,,"2016_Jun_13_1116",59.9836680057,"icelandic","shg05"
84,4,"kk","dew","n","cvcc","œ","velar","stop","cc","dögg","tœkk","no",0,27,27,3,"space",2.2365038395,,,"2016_Jun_13_1116",59.9836680057,"icelandic","shg05"
85,23,"s","wet","adj","cvvcc","o","coronal","stop","cc","vots","voss","no",0,28,28,18,"space",2.4207448959,,,"2016_Jun_13_1116",59.9836680057,"icelandic","shg05"
86,23,"s","wet","adj","cvvcc","o","coronal","stop","cc","vots","voss","no",0,28,28,18,"space",1.8028330803,,,"2016_Jun_13_1116",59.9836680057,"icelandic","shg05"
87,23,"s","wet","adj","cvvcc","o","coronal","stop","cc","vots","voss","no",0,28,28,18,"space",2.2697501183,,,"2016_Jun_13_1116",59.9836680057,"icelandic","shg05"
88,3,"ʰk","dark","agg","cvcc","œ","velar","stop","cc","dökk","tœʰk","yes",0,29,29,2,"space",2.2030940056,,,"2016_Jun_13_1116",59.9836680057,"icelandic","shg05"
89,3,"ʰk","dark","agg","cvcc","œ","velar","stop","cc","dökk","tœʰk","yes",0,29,29,2,"space",2.3364841938,,,"2016_Jun_13_1116",59.9836680057,"icelandic","shg05"
90,3,"ʰk","dark","agg","cvcc","œ","velar","stop","cc","dökk","tœʰk","yes",0,29,29,2,"space",2.1364071369,,,"2016_Jun_13_1116",59.9836680057,"icelandic","shg05"
91,10,"tt","thaw","v","cvccv","i","coronal","stop","ccv","þíddi","θittɪ","no",0,30,30,30,"space",2.3197808266,,,"2016_Jun_13_1116",59.9836680057,"icelandic","shg05"
92,10,"tt","thaw","v","cvccv","i","coronal","stop","ccv","þíddi","θittɪ","no",0,30,30,30,"space",2.0530240536,,,"2016_Jun_13_1116",59.9836680057,"icelandic","shg05"
93,10,"tt","thaw","v","cvccv","i","coronal","stop","ccv","þíddi","θittɪ","no",0,30,30,30,"space",1.95291996,,,"2016_Jun_13_1116",59.9836680057,"icelandic","shg05"
94,12,"tt","feed","v","cvccv","ai","coronal","stop","ccv","fæddi","faittɪ","no",0,31,31,31,"space",2.2532749176,,,"2016_Jun_13_1116",59.9836680057,"icelandic","shg05"
95,12,"tt","feed","v","cvccv","ai","coronal","stop","ccv","fæddi","faittɪ","no",0,31,31,31,"space",2.0365099907,,,"2016_Jun_13_1116",59.9836680057,"icelandic","shg05"
96,12,"tt","feed","v","cvccv","ai","coronal","stop","ccv","fæddi","faittɪ","no",0,31,31,31,"space",2.1194880009,,,"2016_Jun_13_1116",59.9836680057,"icelandic","shg05"
97,11,"ʰt","feed","v","cvcc","ai","coronal","stop","cc","fætt","faiʰt","yes",0,32,32,9,"space",2.2193210125,,,"2016_Jun_13_1116",59.9836680057,"icelandic","shg05"
98,11,"ʰt","feed","v","cvcc","ai","coronal","stop","cc","fætt","faiʰt","yes",0,32,32,9,"space",2.0030210018,,,"2016_Jun_13_1116",59.9836680057,"icelandic","shg05"
99,11,"ʰt","feed","v","cvcc","ai","coronal","stop","cc","fætt","faiʰt","yes",0,32,32,9,"space",2.0196280479,,,"2016_Jun_13_1116",59.9836680057,"icelandic","shg05"
100,16,"tt","fast","adv","vcc","o","coronal","stop","cc","odd","ott","no",0,33,33,13,"space",2.103025198,,,"2016_Jun_13_1116",59.9836680057,"icelandic","shg05"
101,16,"tt","fast","adv","vcc","o","coronal","stop","cc","odd","ott","no",0,33,33,13,"space",2.1529538631,,,"2016_Jun_13_1116",59.9836680057,"icelandic","shg05"
102,16,"tt","fast","adv","vcc","o","coronal","stop","cc","odd","ott","no",0,33,33,13,"space",1.9028959274,,,"2016_Jun_13_1116",59.9836680057,"icelandic","shg05"
103,48,"l","castrate","v","cvlcv","e","coronal","lateral","ccv","gelda","kelta","no",0,34,34,44,"space",2.4197428227,,,"2016_Jun_13_1116",59.9836680057,"icelandic","shg05"
104,48,"l","castrate","v","cvlcv","e","coronal","lateral","ccv","gelda","kelta","no",0,34,34,44,"space",2.0697638989,,,"2016_Jun_13_1116",59.9836680057,"icelandic","shg05"
105,48,"l","castrate","v","cvlcv","e","coronal","lateral","ccv","gelda","kelta","no",0,34,34,44,"space",1.8846838474,,,"2016_Jun_13_1116",59.9836680057,"icelandic","shg05"
106,27,"ʰt","fall","v","cvccv","e","coronal","stop","ccv","detta","teʰta","yes",0,35,35,34,"space",1.8859388828,,,"2016_Jun_13_1116",59.9836680057,"icelandic","shg05"
107,27,"ʰt","fall","v","cvccv","e","coronal","stop","ccv","detta","teʰta","yes",0,35,35,34,"space",1.8016781807,,,"2016_Jun_13_1116",59.9836680057,"icelandic","shg05"
108,27,"ʰt","fall","v","cvccv","e","coronal","stop","ccv","detta","teʰta","yes",0,35,35,34,"space",1.886095047,,,"2016_Jun_13_1116",59.9836680057,"icelandic","shg05"
109,8,"tt","width","n","cvcc","i","coronal","stop","cc","vídd","vitt","no",0,36,36,7,"space",2.0207250118,,,"2016_Jun_13_1116",59.9836680057,"icelandic","shg05"
110,8,"tt","width","n","cvcc","i","coronal","stop","cc","vídd","vitt","no",0,36,36,7,"space",1.7205369473,,,"2016_Jun_13_1116",59.9836680057,"icelandic","shg05"
111,8,"tt","width","n","cvcc","i","coronal","stop","cc","vídd","vitt","no",0,36,36,7,"space",2.0867609978,,,"2016_Jun_13_1116",59.9836680057,"icelandic","shg05"
112,5,"ʰp","chamber pot","n","cvcc","o","labial","stop","cc","kopp","kʰoʰp","yes",0,37,37,4,"space",1.8528320789,,,"2016_Jun_13_1116",59.9836680057,"icelandic","shg05"
113,5,"ʰp","chamber pot","n","cvcc","o","labial","stop","cc","kopp","kʰoʰp","yes",0,37,37,4,"space",1.4866909981,,,"2016_Jun_13_1116",59.9836680057,"icelandic","shg05"
114,5,"ʰp","chamber pot","n","cvcc","o","labial","stop","cc","kopp","kʰoʰp","yes",0,37,37,4,"space",1.7693538666,,,"2016_Jun_13_1116",59.9836680057,"icelandic","shg05"
115,58,"ʰp","cable","n","cvccv","a","labial","stop","ccv","kapli","kaʰplɪ","yes",0,38,38,54,"space",1.7852501869,,,"2016_Jun_13_1116",59.9836680057,"icelandic","shg05"
116,58,"ʰp","cable","n","cvccv","a","labial","stop","ccv","kapli","kaʰplɪ","yes",0,38,38,54,"space",1.6028010845,,,"2016_Jun_13_1116",59.9836680057,"icelandic","shg05"
117,58,"ʰp","cable","n","cvccv","a","labial","stop","ccv","kapli","kaʰplɪ","yes",0,38,38,54,"space",1.8194899559,,,"2016_Jun_13_1116",59.9836680057,"icelandic","shg05"
118,40,"n","pound","n","cvncv","ʏ","coronal","nasal","ccv","punda","pʰʏnta","no",0,39,39,41,"space",2.0030670166,,,"2016_Jun_13_1116",59.9836680057,"icelandic","shg05"
119,40,"n","pound","n","cvncv","ʏ","coronal","nasal","ccv","punda","pʰʏnta","no",0,39,39,41,"space",1.7028310299,,,"2016_Jun_13_1116",59.9836680057,"icelandic","shg05"
120,40,"n","pound","n","cvncv","ʏ","coronal","nasal","ccv","punda","pʰʏnta","no",0,39,39,41,"space",1.5860850811,,,"2016_Jun_13_1116",59.9836680057,"icelandic","shg05"
121,35,"m̥","moustache","n","cvncv","a","labial","nasal","ccv","kampa","kʰam̥pa","yes",0,40,40,36,"space",1.9195461273,,,"2016_Jun_13_1116",59.9836680057,"icelandic","shg05"
122,35,"m̥","moustache","n","cvncv","a","labial","nasal","ccv","kampa","kʰam̥pa","yes",0,40,40,36,"space",1.752794981,,,"2016_Jun_13_1116",59.9836680057,"icelandic","shg05"
123,35,"m̥","moustache","n","cvncv","a","labial","nasal","ccv","kampa","kʰam̥pa","yes",0,40,40,36,"space",1.569617033,,,"2016_Jun_13_1116",59.9836680057,"icelandic","shg05"
124,1,"ʰk","cook","n","cvcc","o","velar","stop","cc","kokk","kʰoʰk","yes",0,41,41,0,"space",2.0529508591,,,"2016_Jun_13_1116",59.9836680057,"icelandic","shg05"
125,1,"ʰk","cook","n","cvcc","o","velar","stop","cc","kokk","kʰoʰk","yes",0,41,41,0,"space",1.569311142,,,"2016_Jun_13_1116",59.9836680057,"icelandic","shg05"
126,1,"ʰk","cook","n","cvcc","o","velar","stop","cc","kokk","kʰoʰk","yes",0,41,41,0,"space",1.8195641041,,,"2016_Jun_13_1116",59.9836680057,"icelandic","shg05"
127,34,"m","comb","v","cvccv","e","labial","nasal","cc","kembdi","kemtɪ","no",0,42,42,25,"space",2.0354700089,,,"2016_Jun_13_1116",59.9836680057,"icelandic","shg05"
128,34,"m","comb","v","cvccv","e","labial","nasal","cc","kembdi","kemtɪ","no",0,42,42,25,"space",2.1030399799,,,"2016_Jun_13_1116",59.9836680057,"icelandic","shg05"
129,34,"m","comb","v","cvccv","e","labial","nasal","cc","kembdi","kemtɪ","no",0,42,42,25,"space",1.5201728344,,,"2016_Jun_13_1116",59.9836680057,"icelandic","shg05"
130,41,"n̥","want","v","cvccv","a","coronal","nasal","ccv","vanta","van̥ta","yes",0,43,43,42,"space",1.752933979,,,"2016_Jun_13_1116",59.9836680057,"icelandic","shg05"
131,41,"n̥","want","v","cvccv","a","coronal","nasal","ccv","vanta","van̥ta","yes",0,43,43,42,"space",2.1207489967,,,"2016_Jun_13_1116",59.9836680057,"icelandic","shg05"
132,41,"n̥","want","v","cvccv","a","coronal","nasal","ccv","vanta","van̥ta","yes",0,43,43,42,"space",1.7369821072,,,"2016_Jun_13_1116",59.9836680057,"icelandic","shg05"
133,53,"p","avenge","v","cvccv","e","labial","stop","ccv","hefna","hepna","no",0,44,44,49,"space",2.1202580929,,,"2016_Jun_13_1116",59.9836680057,"icelandic","shg05"
134,53,"p","avenge","v","cvccv","e","labial","stop","ccv","hefna","hepna","no",0,44,44,49,"space",2.3181650639,,,"2016_Jun_13_1116",59.9836680057,"icelandic","shg05"
135,53,"p","avenge","v","cvccv","e","labial","stop","ccv","hefna","hepna","no",0,44,44,49,"space",1.685022831,,,"2016_Jun_13_1116",59.9836680057,"icelandic","shg05"
136,49,"r̥","energy","n","vrcv","o","coronal","rhotic","ccv","orka","or̥ka","yes",0,45,45,45,"space",2.1032891274,,,"2016_Jun_13_1116",59.9836680057,"icelandic","shg05"
137,49,"r̥","energy","n","vrcv","o","coronal","rhotic","ccv","orka","or̥ka","yes",0,45,45,45,"space",1.7195291519,,,"2016_Jun_13_1116",59.9836680057,"icelandic","shg05"
138,49,"r̥","energy","n","vrcv","o","coronal","rhotic","ccv","orka","or̥ka","yes",0,45,45,45,"space",1.953083992,,,"2016_Jun_13_1116",59.9836680057,"icelandic","shg05"
139,44,"nn","cheek","n","cvcc","i","coronal","nasal","cc","kinn","kʰɪnn","no",0,46,46,27,"space",2.0873000622,,,"2016_Jun_13_1116",59.9836680057,"icelandic","shg05"
140,44,"nn","cheek","n","cvcc","i","coronal","nasal","cc","kinn","kʰɪnn","no",0,46,46,27,"space",2.1014671326,,,"2016_Jun_13_1116",59.9836680057,"icelandic","shg05"
141,44,"nn","cheek","n","cvcc","i","coronal","nasal","cc","kinn","kʰɪnn","no",0,46,46,27,"space",1.8199291229,,,"2016_Jun_13_1116",59.9836680057,"icelandic","shg05"
142,2,"kk","beak","n","cvcc","o","velar","stop","cc","gogg","kokk","no",0,47,47,1,"space",2.0030190945,,,"2016_Jun_13_1116",59.9836680057,"icelandic","shg05"
143,2,"kk","beak","n","cvcc","o","velar","stop","cc","gogg","kokk","no",0,47,47,1,"space",1.9862370491,,,"2016_Jun_13_1116",59.9836680057,"icelandic","shg05"
144,2,"kk","beak","n","cvcc","o","velar","stop","cc","gogg","kokk","no",0,47,47,1,"space",1.8352508545,,,"2016_Jun_13_1116",59.9836680057,"icelandic","shg05"
145,26,"kk","barrel","n","cvccv","a","velar","stop","ccv","kagga","kʰakka","no",0,48,48,33,"space",1.969656229,,,"2016_Jun_13_1116",59.9836680057,"icelandic","shg05"
146,26,"kk","barrel","n","cvccv","a","velar","stop","ccv","kagga","kʰakka","no",0,48,48,33,"space",1.78612113,,,"2016_Jun_13_1116",59.9836680057,"icelandic","shg05"
147,26,"kk","barrel","n","cvccv","a","velar","stop","ccv","kagga","kʰakka","no",0,48,48,33,"space",1.5694730282,,,"2016_Jun_13_1116",59.9836680057,"icelandic","shg05"
148,56,"ʰp","munch","v","cvccv","a","labial","stop","ccv","japla","jaʰpla","yes",0,49,49,52,"space",1.9531610012,,,"2016_Jun_13_1116",59.9836680057,"icelandic","shg05"
149,56,"ʰp","munch","v","cvccv","a","labial","stop","ccv","japla","jaʰpla","yes",0,49,49,52,"space",1.8513231278,,,"2016_Jun_13_1116",59.9836680057,"icelandic","shg05"
150,56,"ʰp","munch","v","cvccv","a","labial","stop","ccv","japla","jaʰpla","yes",0,49,49,52,"space",1.90290308,,,"2016_Jun_13_1116",59.9836680057,"icelandic","shg05"
151,38,"m","comb","v","cvncv","e","labial","nasal","ccv","kemba","kʰempa","no",0,50,50,39,"space",2.0029499531,,,"2016_Jun_13_1116",59.9836680057,"icelandic","shg05"
152,38,"m","comb","v","cvncv","e","labial","nasal","ccv","kemba","kʰempa","no",0,50,50,39,"space",2.0012209415,,,"2016_Jun_13_1116",59.9836680057,"icelandic","shg05"
153,38,"m","comb","v","cvncv","e","labial","nasal","ccv","kemba","kʰempa","no",0,50,50,39,"space",1.6704058647,,,"2016_Jun_13_1116",59.9836680057,"icelandic","shg05"
154,24,"ʰt","wet","adj","cvvcc","o","coronal","stop","cc","vott","voʰt","yes",0,51,51,19,"space",1.8695890904,,,"2016_Jun_13_1116",59.9836680057,"icelandic","shg05"
155,24,"ʰt","wet","adj","cvvcc","o","coronal","stop","cc","vott","voʰt","yes",0,51,51,19,"space",1.7034630776,,,"2016_Jun_13_1116",59.9836680057,"icelandic","shg05"
156,24,"ʰt","wet","adj","cvvcc","o","coronal","stop","cc","vott","voʰt","yes",0,51,51,19,"space",1.8862860203,,,"2016_Jun_13_1116",59.9836680057,"icelandic","shg05"
157,52,"l","foam","v","vvccv","iu","coronal","lateral","ccv","ólga","oulka","no",0,52,52,48,"space",1.83624506,,,"2016_Jun_13_1116",59.9836680057,"icelandic","shg05"
158,52,"l","foam","v","vvccv","iu","coronal","lateral","ccv","ólga","oulka","no",0,52,52,48,"space",1.719438076,,,"2016_Jun_13_1116",59.9836680057,"icelandic","shg05"
159,52,"l","foam","v","vvccv","iu","coronal","lateral","ccv","ólga","oulka","no",0,52,52,48,"space",1.786151886,,,"2016_Jun_13_1116",59.9836680057,"icelandic","shg05"
160,30,"m","comb","n","cvnc","a","labial","nasal","cc","kamb","kʰamp","no",0,53,53,21,"space",1.8679358959,,,"2016_Jun_13_1116",59.9836680057,"icelandic","shg05"
161,30,"m","comb","n","cvnc","a","labial","nasal","cc","kamb","kʰamp","no",0,53,53,21,"space",1.8346412182,,,"2016_Jun_13_1116",59.9836680057,"icelandic","shg05"
162,30,"m","comb","n","cvnc","a","labial","nasal","cc","kamb","kʰamp","no",0,53,53,21,"space",1.5027410984,,,"2016_Jun_13_1116",59.9836680057,"icelandic","shg05"
163,50,"r","scream","n","vrcv","o","coronal","rhotic","ccv","orga","orka","no",0,54,54,46,"space",1.9867920876,,,"2016_Jun_13_1116",59.9836680057,"icelandic","shg05"
164,50,"r","scream","n","vrcv","o","coronal","rhotic","ccv","orga","orka","no",0,54,54,46,"space",1.8864049912,,,"2016_Jun_13_1116",59.9836680057,"icelandic","shg05"
165,50,"r","scream","n","vrcv","o","coronal","rhotic","ccv","orga","orka","no",0,54,54,46,"space",1.6861109734,,,"2016_Jun_13_1116",59.9836680057,"icelandic","shg05"
166,9,"ʰt","thaw","v","cvcc","i","coronal","stop","cc","þítt","θiʰt","yes",0,55,55,8,"space",2.3029909134,,,"2016_Jun_13_1116",59.9836680057,"icelandic","shg05"
167,9,"ʰt","thaw","v","cvcc","i","coronal","stop","cc","þítt","θiʰt","yes",0,55,55,8,"space",1.9696660042,,,"2016_Jun_13_1116",59.9836680057,"icelandic","shg05"
168,9,"ʰt","thaw","v","cvcc","i","coronal","stop","cc","þítt","θiʰt","yes",0,55,55,8,"space",1.8362798691,,,"2016_Jun_13_1116",59.9836680057,"icelandic","shg05"
169,60,"ʰp","tiptoe","v","cvccv","ɪ","labial","stop","ccv","tipla","tɪʰpla","yes",0,56,56,56,"space",2.2530639172,,,"2016_Jun_13_1116",59.9836680057,"icelandic","shg05"
170,60,"ʰp","tiptoe","v","cvccv","ɪ","labial","stop","ccv","tipla","tɪʰpla","yes",0,56,56,56,"space",1.686054945,,,"2016_Jun_13_1116",59.9836680057,"icelandic","shg05"
171,60,"ʰp","tiptoe","v","cvccv","ɪ","labial","stop","ccv","tipla","tɪʰpla","yes",0,56,56,56,"space",1.6861219406,,,"2016_Jun_13_1116",59.9836680057,"icelandic","shg05"
172,19,"s","sediment","n","cvcc","e","coronal","stop","cc","sets","sess","no",0,57,57,14,"space",1.7695491314,,,"2016_Jun_13_1116",59.9836680057,"icelandic","shg05"
173,19,"s","sediment","n","cvcc","e","coronal","stop","cc","sets","sess","no",0,57,57,14,"space",1.8533549309,,,"2016_Jun_13_1116",59.9836680057,"icelandic","shg05"
174,19,"s","sediment","n","cvcc","e","coronal","stop","cc","sets","sess","no",0,57,57,14,"space",1.7033228874,,,"2016_Jun_13_1116",59.9836680057,"icelandic","shg05"
,,,,,,,,,,,,,,,,,,,"space",3.7203609943,"2016_Jun_13_1116",59.9836680057,"icelandic","shg05"
